PacketCounter,SampleTimeFine,Quat_W,Quat_X,Quat_Y,Quat_Z,Acc_X,Acc_Y,Acc_Z,Gyr_X,Gyr_Y,Gyr_Z,Mag_X,Mag_Y,Mag_Z,Status,
0, 1650428528, 0.5985666513442993, -0.010850252583622932, -0.00021571485558524728, 0.8009995818138123, 0, 0, 0, 0, 0, 0, 1.57666015625, -0.560546875, -1.22119140625, 0, 
1, 1650436861, 0.598566472530365, -0.010850784368813038, -0.00021598173771053553, 0.8009997010231018, -0.19640964269638062, -0.14083200693130493, 9.843928337097168, 0.2925017476081848, 0.3309231102466583, -0.7569006085395813, 1.57763671875, -0.560546875, -1.2236328125, 0, 
2, 1650445194, 0.5985580086708069, -0.010845865122973919, -0.00020789333211723715, 0.801006019115448, -0.1882556676864624, -0.12569691240787506, 9.855230331420898, 0.4250810146331787, 0.3377108573913574, -0.7317730188369751, 1.57470703125, -0.55859375, -1.22314453125, 0, 
3, 1650453527, 0.5985554456710815, -0.010848602280020714, -0.00020676465646829456, 0.801007866859436, -0.18330590426921844, -0.12511752545833588, 9.866252899169922, 0.29014527797698975, 0.3665781617164612, -0.7156105637550354, 1.5732421875, -0.56494140625, -1.22119140625, 0, 
4, 1650461860, 0.598547637462616, -0.01084896083921194, -0.0002100220153806731, 0.801013708114624, -0.17088879644870758, -0.1259833127260208, 9.857147216796875, 0.2552074193954468, 0.30228644609451294, -0.7408918142318726, 1.5751953125, -0.5595703125, -1.220703125, 0, 
5, 1650470193, 0.598544180393219, -0.010853934101760387, -0.00021768978331238031, 0.8010162115097046, -0.19291217625141144, -0.13334329426288605, 9.838556289672852, 0.17442013323307037, 0.32037004828453064, -0.7032900452613831, 1.5771484375, -0.5625, -1.22265625, 0, 
6, 1650478526, 0.5985321998596191, -0.010854066349565983, -0.00021414662478491664, 0.8010251522064209, -0.18741163611412048, -0.15158304572105408, 9.858412742614746, 0.3327929377555847, 0.35374534130096436, -0.66801917552948, 1.57666015625, -0.5634765625, -1.2216796875, 0, 
7, 1650486859, 0.5985295176506042, -0.01085473783314228, -0.00022154452744871378, 0.8010271787643433, -0.1805019974708557, -0.1526559740304947, 9.854764938354492, 0.21289272606372833, 0.27516090869903564, -0.7150213718414307, 1.57470703125, -0.5634765625, -1.22021484375, 0, 
8, 1650495192, 0.5985212922096252, -0.010854000225663185, -0.00022288993932306767, 0.8010333180427551, -0.15794934332370758, -0.12409497052431107, 9.851760864257812, 0.28627753257751465, 0.3060261011123657, -0.7374851703643799, 1.5771484375, -0.56103515625, -1.22119140625, 0, 
9, 1650503525, 0.5985212326049805, -0.010854143649339676, -0.0002193469408666715, 0.8010334372520447, -0.19229702651500702, -0.1464329957962036, 9.830982208251953, 0.33960628509521484, 0.3578948378562927, -0.7581300735473633, 1.57666015625, -0.5615234375, -1.22216796875, 0, 
10, 1650511858, 0.5985183119773865, -0.010854844935238361, -0.00020831461006309837, 0.8010355234146118, -0.1877335160970688, -0.1369626373052597, 9.849486351013184, 0.410967618227005, 0.4235953986644745, -0.8245478272438049, 1.576171875, -0.56005859375, -1.22412109375, 0, 
11, 1650520191, 0.5985139608383179, -0.01086156815290451, -0.00019910944683942944, 0.8010386824607849, -0.1923038810491562, -0.12938734889030457, 9.86055850982666, 0.3455488383769989, 0.47871723771095276, -0.6849501729011536, 1.576171875, -0.56103515625, -1.22412109375, 0, 
12, 1650528524, 0.5985049605369568, -0.010856268927454948, -0.0001994685735553503, 0.8010454773902893, -0.17967940866947174, -0.1411398947238922, 9.851288795471191, 0.3344578146934509, 0.26240500807762146, -0.7196062803268433, 1.5751953125, -0.55859375, -1.220703125, 0, 
13, 1650536857, 0.5985064506530762, -0.010861318558454514, -0.00019764075113926083, 0.8010443449020386, -0.1731274127960205, -0.12365835160017014, 9.833306312561035, 0.28000202775001526, 0.39979982376098633, -0.7858960032463074, 1.57763671875, -0.5615234375, -1.2197265625, 0, 
14, 1650545190, 0.59850013256073, -0.01085489522665739, -0.0001915086613735184, 0.8010491132736206, -0.17538771033287048, -0.1329212784767151, 9.858756065368652, 0.41593676805496216, 0.30343905091285706, -0.7615880966186523, 1.5751953125, -0.5615234375, -1.224609375, 0, 
15, 1650553523, 0.5984998941421509, -0.010850990191102028, -0.0001975820487132296, 0.8010493516921997, -0.1793360859155655, -0.13410864770412445, 9.847719192504883, 0.2662215530872345, 0.23533077538013458, -0.7561578154563904, 1.57763671875, -0.56201171875, -1.224609375, 0, 
16, 1650561856, 0.5984888672828674, -0.010851772502064705, -0.00019928501569665968, 0.8010575175285339, -0.16868549585342407, -0.13536755740642548, 9.856932640075684, 0.269500195980072, 0.3184233605861664, -0.6866151690483093, 1.5751953125, -0.5634765625, -1.22119140625, 0, 
17, 1650570189, 0.5984886288642883, -0.010852735489606857, -0.00019625283312052488, 0.8010576963424683, -0.19467177987098694, -0.13765646517276764, 9.854865074157715, 0.3247244954109192, 0.3641960322856903, -0.7548515796661377, 1.576171875, -0.56396484375, -1.22216796875, 0, 
18, 1650578522, 0.5984802842140198, -0.010853986255824566, -0.0001933674211613834, 0.8010640740394592, -0.17230483889579773, -0.16392885148525238, 9.854586601257324, 0.3164766728878021, 0.36222368478775024, -0.7335916757583618, 1.5771484375, -0.5615234375, -1.22314453125, 0, 
19, 1650586855, 0.5984801650047302, -0.010848764330148697, -0.00019322017033118755, 0.8010642528533936, -0.1700298935174942, -0.13187669217586517, 9.83315658569336, 0.34593307971954346, 0.27277883887290955, -0.7571824789047241, 1.5751953125, -0.5615234375, -1.22265625, 0, 
20, 1650595188, 0.5984781384468079, -0.010843195021152496, -0.00018650750280357897, 0.8010658025741577, -0.17961525917053223, -0.13186997175216675, 9.842240333557129, 0.4159879684448242, 0.31888440251350403, -0.8385074734687805, 1.576171875, -0.5654296875, -1.224609375, 0, 
21, 1650603521, 0.5984765291213989, -0.010844344273209572, -0.0001864292280515656, 0.8010669946670532, -0.19472184777259827, -0.13184835016727448, 9.845773696899414, 0.29221999645233154, 0.3405027985572815, -0.7322341203689575, 1.5751953125, -0.56396484375, -1.2197265625, 0, 
22, 1650611854, 0.5984620451927185, -0.010847985744476318, -0.00018842054123524576, 0.8010777831077576, -0.18214714527130127, -0.13639040291309357, 9.838456153869629, 0.24250277876853943, 0.3486737608909607, -0.6323642730712891, 1.57568359375, -0.56201171875, -1.220703125, 0, 
23, 1650620187, 0.5984634757041931, -0.010853313840925694, -0.00019983240053988993, 0.8010766506195068, -0.17931461334228516, -0.12684136629104614, 9.842290878295898, 0.13095277547836304, 0.29232242703437805, -0.7857422232627869, 1.576171875, -0.5634765625, -1.2216796875, 0, 
24, 1650628520, 0.5984596610069275, -0.010854478925466537, -0.0002064718573819846, 0.801079511642456, -0.17731161415576935, -0.14111098647117615, 9.83292007446289, 0.2131744921207428, 0.2841259241104126, -0.8149937391281128, 1.57763671875, -0.56103515625, -1.2216796875, 0, 
25, 1650636853, 0.5984596610069275, -0.010845806449651718, -0.0002033877099165693, 0.8010795712471008, -0.18193255364894867, -0.1323419064283371, 9.865981101989746, 0.4052555561065674, 0.2574102580547333, -0.7587192058563232, 1.5751953125, -0.56298828125, -1.22216796875, 0, 
26, 1650645186, 0.5984542965888977, -0.010845785029232502, -0.00019789468205999583, 0.8010836243629456, -0.199914813041687, -0.1466905027627945, 9.843635559082031, 0.35584571957588196, 0.3698823153972626, -0.7792874574661255, 1.57470703125, -0.56201171875, -1.2236328125, 0, 
27, 1650653519, 0.5984539985656738, -0.010849343612790108, -0.0001963992981472984, 0.8010838031768799, -0.1877049058675766, -0.14789217710494995, 9.862003326416016, 0.2883778512477875, 0.379974365234375, -0.7549283504486084, 1.57568359375, -0.56298828125, -1.22265625, 0, 
28, 1650661852, 0.5984443426132202, -0.01084450539201498, -0.00019269963377155364, 0.8010910749435425, -0.18078094720840454, -0.14892934262752533, 9.852883338928223, 0.37480029463768005, 0.3007751405239105, -0.7092837691307068, 1.57373046875, -0.5615234375, -1.2236328125, 0, 
29, 1650670185, 0.5984406471252441, -0.010841918177902699, -0.00019576551858335733, 0.8010939359664917, -0.1905805915594101, -0.13746358454227448, 9.83651065826416, 0.288301020860672, 0.27454614639282227, -0.696732759475708, 1.5732421875, -0.56201171875, -1.22314453125, 0, 
30, 1650678518, 0.5984339714050293, -0.010848288424313068, -0.00019697537936735898, 0.801098644733429, -0.17663945257663727, -0.12543940544128418, 9.827655792236328, 0.2292858213186264, 0.3856094777584076, -0.7649434804916382, 1.5771484375, -0.56103515625, -1.220703125, 0, 
31, 1650686851, 0.5984403491020203, -0.010847177356481552, -0.00019665305444505066, 0.8010938763618469, -0.1714034080505371, -0.13808545470237732, 9.847626686096191, 0.31450435519218445, 0.3190636932849884, -0.8700386881828308, 1.57470703125, -0.56298828125, -1.2216796875, 0, 
32, 1650695184, 0.5984405875205994, -0.010848673060536385, -0.00019751068612094969, 0.8010936975479126, -0.18639592826366425, -0.14778488874435425, 9.8766450881958, 0.27487921714782715, 0.33481651544570923, -0.8766472935676575, 1.57470703125, -0.56298828125, -1.22314453125, 0, 
33, 1650703517, 0.598436713218689, -0.01085369847714901, -0.00019771353981923312, 0.8010964393615723, -0.1503456085920334, -0.13456644117832184, 9.840516090393066, 0.25694918632507324, 0.380589097738266, -0.6943762302398682, 1.578125, -0.5625, -1.224609375, 0, 
34, 1650711850, 0.5984293222427368, -0.010856963694095612, -0.00020444967958610505, 0.8011020421981812, -0.1843073070049286, -0.12459537386894226, 9.853219985961914, 0.1945272833108902, 0.3061797320842743, -0.7526229619979858, 1.5732421875, -0.55908203125, -1.22412109375, 0, 
35, 1650720183, 0.5984318256378174, -0.010859866626560688, -0.00020203915482852608, 0.8011001348495483, -0.18440012633800507, -0.13345754146575928, 9.851245880126953, 0.3032597303390503, 0.38064032793045044, -0.8023915886878967, 1.572265625, -0.5634765625, -1.22216796875, 0, 
36, 1650728516, 0.5984193682670593, -0.010861331596970558, -0.00019537475600373, 0.8011093735694885, -0.19045129418373108, -0.1352742314338684, 9.863977432250977, 0.3565373718738556, 0.39354994893074036, -0.6594128608703613, 1.57421875, -0.5625, -1.2216796875, 0, 
37, 1650736849, 0.5984218716621399, -0.010861440561711788, -0.00018784428539220244, 0.8011074662208557, -0.19372780621051788, -0.10333734005689621, 9.838807106018066, 0.38179299235343933, 0.39185938239097595, -0.8019816875457764, 1.57373046875, -0.5595703125, -1.2236328125, 0, 
38, 1650745182, 0.5984174609184265, -0.010858217254281044, -0.0001836419542087242, 0.8011108636856079, -0.18129616975784302, -0.11179196089506149, 9.85708236694336, 0.36985671520233154, 0.3243914544582367, -0.7976272702217102, 1.572265625, -0.5634765625, -1.22265625, 0, 
39, 1650753515, 0.5984184145927429, -0.010859275236725807, -0.0001863772195065394, 0.8011101484298706, -0.1824401468038559, -0.13849301636219025, 9.838327407836914, 0.26166221499443054, 0.3173987865447998, -0.7785189747810364, 1.57421875, -0.56298828125, -1.22021484375, 0, 
40, 1650761848, 0.5984148979187012, -0.010858198627829552, -0.00018999380699824542, 0.8011128306388855, -0.17053093016147614, -0.12880839407444, 9.855058670043945, 0.26409557461738586, 0.2833062410354614, -0.8164536952972412, 1.57568359375, -0.5615234375, -1.2236328125, 0, 
41, 1650770181, 0.5984140634536743, -0.010856074281036854, -0.0001891932188300416, 0.801113486289978, -0.1760883778333664, -0.1377992182970047, 9.854865074157715, 0.3272090256214142, 0.3117380142211914, -0.7454255223274231, 1.576171875, -0.56396484375, -1.22119140625, 0, 
42, 1650778514, 0.5984095931053162, -0.010858881287276745, -0.00019537631305865943, 0.8011167645454407, -0.18892088532447815, -0.15069609880447388, 9.860051155090332, 0.204593688249588, 0.3050270974636078, -0.7968587875366211, 1.5771484375, -0.5595703125, -1.22509765625, 0, 
43, 1650786847, 0.598411500453949, -0.01086181215941906, -0.00019979588978458196, 0.8011153340339661, -0.1643437147140503, -0.12920179963111877, 9.849600791931152, 0.22721107304096222, 0.32341811060905457, -0.7933240532875061, 1.57470703125, -0.56494140625, -1.22021484375, 0, 
44, 1650795180, 0.5984037518501282, -0.010864795185625553, -0.00020066350407432765, 0.8011210560798645, -0.17884968221187592, -0.14394381642341614, 9.841911315917969, 0.26250749826431274, 0.3515169620513916, -0.7372289896011353, 1.578125, -0.5634765625, -1.22216796875, 0, 
45, 1650803513, 0.5984066128730774, -0.010867279022932053, -0.00020673920516856015, 0.8011188507080078, -0.1785707175731659, -0.118129201233387, 9.85696792602539, 0.2128414809703827, 0.30528324842453003, -0.8099732995033264, 1.57373046875, -0.56201171875, -1.220703125, 0, 
46, 1650811846, 0.5983978509902954, -0.010860269889235497, -0.0002027832524618134, 0.8011255264282227, -0.18209707736968994, -0.13065382838249207, 9.847569465637207, 0.39657238125801086, 0.2800532281398773, -0.7240887880325317, 1.57373046875, -0.56201171875, -1.22314453125, 0, 
47, 1650820179, 0.5983983278274536, -0.010867318138480186, -0.00020295869035180658, 0.8011250495910645, -0.1933484971523285, -0.1341944932937622, 9.849249839782715, 0.2403767704963684, 0.40382120013237, -0.7697333097457886, 1.57470703125, -0.5615234375, -1.220703125, 0, 
48, 1650828512, 0.5983915328979492, -0.010866353288292885, -0.00020436494378373027, 0.8011301159858704, -0.17067371308803558, -0.12032482773065567, 9.858820915222168, 0.2880704998970032, 0.3029523193836212, -0.7571823596954346, 1.57373046875, -0.56201171875, -1.22412109375, 0, 
49, 1650836845, 0.5983885526657104, -0.010869142599403858, -0.00020255031995475292, 0.8011322617530823, -0.19074486196041107, -0.1354319304227829, 9.865723609924316, 0.2980600595474243, 0.3732890784740448, -0.7106925845146179, 1.57666015625, -0.5625, -1.22412109375, 0, 
50, 1650845178, 0.5983803868293762, -0.01086501870304346, -0.0001953071914613247, 0.8011384010314941, -0.18275514245033264, -0.161883145570755, 9.845237731933594, 0.40861111879348755, 0.33942708373069763, -0.7333868145942688, 1.5751953125, -0.56201171875, -1.22265625, 0, 
51, 1650853511, 0.5983770489692688, -0.010868736542761326, -0.0001956089836312458, 0.8011408448219299, -0.17010176181793213, -0.11860844492912292, 9.840523719787598, 0.2669643461704254, 0.36609145998954773, -0.7026752829551697, 1.57666015625, -0.5615234375, -1.2265625, 0, 
52, 1650861844, 0.5983670353889465, -0.01086878776550293, -0.0001894594170153141, 0.8011483550071716, -0.1756523698568344, -0.13325746357440948, 9.851223945617676, 0.36191630363464355, 0.3744160532951355, -0.7038279175758362, 1.57421875, -0.5634765625, -1.22265625, 0, 
53, 1650870177, 0.598365068435669, -0.010867669247090816, -0.0001855439186329022, 0.801149845123291, -0.18136748671531677, -0.14606820046901703, 9.871116638183594, 0.35272082686424255, 0.34818708896636963, -0.7253695130348206, 1.57275390625, -0.56201171875, -1.22412109375, 0, 
54, 1650878510, 0.5983566045761108, -0.010867031291127205, -0.00019370077643543482, 0.8011561632156372, -0.17688961327075958, -0.13071796298027039, 9.869549751281738, 0.21025443077087402, 0.25044316053390503, -0.7316961884498596, 1.57763671875, -0.5615234375, -1.224609375, 0, 
55, 1650886843, 0.5983599424362183, -0.010859317146241665, -0.00018218206241726875, 0.801153838634491, -0.20045126974582672, -0.14397242665290833, 9.85814094543457, 0.4926513731479645, 0.33835121989250183, -0.814993679523468, 1.5751953125, -0.5615234375, -1.2236328125, 0, 
56, 1650895176, 0.5983591675758362, -0.01085794810205698, -0.00018662435468286276, 0.8011544346809387, -0.1818680614233017, -0.11710619926452637, 9.871545791625977, 0.2579737603664398, 0.27359843254089355, -0.8575645685195923, 1.57373046875, -0.56005859375, -1.22412109375, 0, 
57, 1650903509, 0.5983632802963257, -0.010852063074707985, -0.0001840132026700303, 0.8011514544487, -0.1595873087644577, -0.13032495975494385, 9.855058670043945, 0.378924161195755, 0.28550904989242554, -0.830669641494751, 1.5751953125, -0.55859375, -1.22119140625, 0, 
58, 1650911842, 0.5983587503433228, -0.010852434672415257, -0.00018106409697793424, 0.8011547923088074, -0.16053125262260437, -0.111276775598526, 9.840673446655273, 0.3250062167644501, 0.3530794382095337, -0.7910700440406799, 1.5732421875, -0.56298828125, -1.2216796875, 0, 
59, 1650920175, 0.5983607769012451, -0.010856680572032928, -0.00017421091615688056, 0.801153302192688, -0.17556670308113098, -0.11509664356708527, 9.844143867492676, 0.34155306220054626, 0.4320993721485138, -0.7936826944351196, 1.57373046875, -0.56201171875, -1.220703125, 0, 
60, 1650928508, 0.5983548164367676, -0.0108537832275033, -0.0001793941337382421, 0.8011577129364014, -0.16844944655895233, -0.12924471497535706, 9.860466003417969, 0.262942910194397, 0.2501101791858673, -0.7740621566772461, 1.5732421875, -0.5625, -1.22119140625, 0, 
61, 1650936841, 0.5983571410179138, -0.010856220498681068, -0.0001759495062287897, 0.8011559247970581, -0.18864209949970245, -0.13308601081371307, 9.845566749572754, 0.31793665885925293, 0.38253575563430786, -0.800726592540741, 1.57373046875, -0.56298828125, -1.22021484375, 0, 
62, 1650945174, 0.598354697227478, -0.010859080590307713, -0.00016607186989858747, 0.8011577129364014, -0.17208309471607208, -0.14849302172660828, 9.845495223999023, 0.3826126158237457, 0.43811866641044617, -0.8311562538146973, 1.57470703125, -0.5625, -1.22314453125, 0, 
63, 1650953507, 0.5983506441116333, -0.010866457596421242, -0.00016966690600384027, 0.8011606335639954, -0.1717182993888855, -0.12596872448921204, 9.847655296325684, 0.19941963255405426, 0.3794364631175995, -0.6914818286895752, 1.57421875, -0.564453125, -1.22265625, 0, 
64, 1650961840, 0.5983455777168274, -0.010859735310077667, -0.00016980725922621787, 0.8011645078659058, -0.1744510382413864, -0.11665596812963486, 9.849586486816406, 0.3499288558959961, 0.2502382695674896, -0.7851274609565735, 1.57421875, -0.56201171875, -1.22509765625, 0, 
65, 1650970173, 0.5983473062515259, -0.010861567221581936, -0.00017756843590177596, 0.8011631965637207, -0.17412881553173065, -0.13261370360851288, 9.847526550292969, 0.20005998015403748, 0.2850736081600189, -0.7905576825141907, 1.57421875, -0.5625, -1.2236328125, 0, 
66, 1650978506, 0.5983374714851379, -0.010870391502976418, -0.00018317987269256264, 0.8011704683303833, -0.1887778341770172, -0.14199107885360718, 9.843570709228516, 0.160204216837883, 0.3754918575286865, -0.7048268914222717, 1.576171875, -0.560546875, -1.22314453125, 0, 
67, 1650986839, 0.5983379483222961, -0.010878545232117176, -0.00018406190793029964, 0.8011699914932251, -0.1763245165348053, -0.14686891436576843, 9.84912109375, 0.22380439937114716, 0.4099942743778229, -0.7698615193367004, 1.5751953125, -0.5625, -1.22216796875, 0, 
68, 1650995172, 0.598331093788147, -0.010879389941692352, -0.0001901171781355515, 0.8011751174926758, -0.1590506136417389, -0.134895458817482, 9.851288795471191, 0.2228822261095047, 0.2836135923862457, -0.7527511119842529, 1.5791015625, -0.56103515625, -1.22265625, 0, 
69, 1651003505, 0.5983272194862366, -0.01087882835417986, -0.0001961217785719782, 0.8011780381202698, -0.17775510251522064, -0.1314690113067627, 9.838335037231445, 0.23755918443202972, 0.271984726190567, -0.6953751444816589, 1.5771484375, -0.5595703125, -1.2216796875, 0, 
70, 1651011838, 0.5983195900917053, -0.01087808795273304, -0.00019301573047414422, 0.8011837601661682, -0.1857089400291443, -0.12792827188968658, 9.849292755126953, 0.3364045023918152, 0.3431154787540436, -0.7386120557785034, 1.5751953125, -0.5615234375, -1.22216796875, 0, 
71, 1651020171, 0.5983173251152039, -0.010878987610340118, -0.0001920919312397018, 0.8011854887008667, -0.18108852207660675, -0.1201033890247345, 9.860444068908691, 0.3034902513027191, 0.34560003876686096, -0.7207332849502563, 1.576171875, -0.560546875, -1.22314453125, 0, 
72, 1651028504, 0.5983077883720398, -0.010880529880523682, -0.00019910195260308683, 0.8011925220489502, -0.1773332804441452, -0.13029618561267853, 9.845666885375977, 0.20461930334568024, 0.28292205929756165, -0.7085666060447693, 1.5732421875, -0.5615234375, -1.220703125, 0, 
73, 1651036837, 0.5983123183250427, -0.01088002324104309, -0.00019894493743777275, 0.8011891841888428, -0.18096676468849182, -0.14116832613945007, 9.847297668457031, 0.30779343843460083, 0.3235718011856079, -0.8372780680656433, 1.57568359375, -0.56103515625, -1.22021484375, 0, 
74, 1651045170, 0.5983055233955383, -0.01087714172899723, -0.00019832643738482147, 0.8011942505836487, -0.16562408208847046, -0.12365835160017014, 9.849535942077637, 0.3258770704269409, 0.29872599244117737, -0.7537500858306885, 1.57470703125, -0.56103515625, -1.2236328125, 0, 
75, 1651053503, 0.5983054041862488, -0.010876817628741264, -0.00020481976389419287, 0.8011943697929382, -0.15658289194107056, -0.13207724690437317, 9.85499382019043, 0.2313861846923828, 0.2707040309906006, -0.7609732747077942, 1.576171875, -0.56298828125, -1.22119140625, 0, 
76, 1651061836, 0.5982954502105713, -0.01087658666074276, -0.00020554733055178076, 0.8012017607688904, -0.1716107428073883, -0.1323702335357666, 9.856667518615723, 0.28917187452316284, 0.31565701961517334, -0.6980646848678589, 1.5732421875, -0.56201171875, -1.220703125, 0, 
77, 1651070169, 0.5982906222343445, -0.010878494940698147, -0.0002060327969957143, 0.8012053370475769, -0.15998049080371857, -0.15319958329200745, 9.836332321166992, 0.2786701023578644, 0.344806045293808, -0.6782137155532837, 1.57666015625, -0.5615234375, -1.22314453125, 0, 
78, 1651078502, 0.5982850790023804, -0.0108811529353261, -0.0002108623884851113, 0.8012094497680664, -0.18553043901920319, -0.12465259432792664, 9.8474760055542, 0.22073066234588623, 0.314888596534729, -0.7771358489990234, 1.57470703125, -0.56494140625, -1.2216796875, 0, 
79, 1651086835, 0.5982843041419983, -0.01088474877178669, -0.0002204499760409817, 0.8012099862098694, -0.1689574420452118, -0.14032475650310516, 9.858406066894531, 0.16537828743457794, 0.288941353559494, -0.7481149435043335, 1.572265625, -0.5615234375, -1.2216796875, 0, 
80, 1651095168, 0.5982783436775208, -0.010878578759729862, -0.00021924123575445265, 0.8012145161628723, -0.17861364781856537, -0.1367623507976532, 9.854686737060547, 0.35940617322921753, 0.2667594850063324, -0.7701689004898071, 1.57470703125, -0.56103515625, -1.2236328125, 0, 
81, 1651103501, 0.5982776880264282, -0.010876988060772419, -0.00021652049326803535, 0.8012150526046753, -0.18303409218788147, -0.12923040986061096, 9.863905906677246, 0.34485724568367004, 0.3319220244884491, -0.7484991550445557, 1.57568359375, -0.55908203125, -1.2265625, 0, 
82, 1651111834, 0.5982727408409119, -0.010876567102968693, -0.000220062822336331, 0.8012186884880066, -0.1829339563846588, -0.1376350075006485, 9.845466613769531, 0.2606120705604553, 0.2911441922187805, -0.7853068113327026, 1.57763671875, -0.5615234375, -1.22314453125, 0, 
83, 1651120167, 0.5982733368873596, -0.010872851125895977, -0.00021266753901727498, 0.8012182712554932, -0.18917839229106903, -0.12832915782928467, 9.84369945526123, 0.4118640720844269, 0.34818708896636963, -0.7693235278129578, 1.57421875, -0.56396484375, -1.22314453125, 0, 
84, 1651128500, 0.5982687473297119, -0.010868680663406849, -0.00021067036141175777, 0.8012217283248901, -0.16750527918338776, -0.134316086769104, 9.852991104125977, 0.35238781571388245, 0.296267032623291, -0.7897124290466309, 1.57861328125, -0.56396484375, -1.2236328125, 0, 
85, 1651136833, 0.5982685685157776, -0.010868956334888935, -0.0002008604642469436, 0.8012218475341797, -0.1698082834482193, -0.1282145082950592, 9.83839225769043, 0.40558865666389465, 0.4119153320789337, -0.7557992935180664, 1.57568359375, -0.56494140625, -1.2216796875, 0, 
86, 1651145166, 0.5982601642608643, -0.010868685320019722, -0.0001968772558029741, 0.8012283444404602, -0.16475142538547516, -0.13495269417762756, 9.852997779846191, 0.34268003702163696, 0.35302817821502686, -0.7254207134246826, 1.57568359375, -0.56005859375, -1.22265625, 0, 
87, 1651153499, 0.5982606410980225, -0.010865990072488785, -0.0001894085726235062, 0.8012280464172363, -0.1876474767923355, -0.12247078120708466, 9.845616340637207, 0.4050251245498657, 0.361173540353775, -0.7676330804824829, 1.57568359375, -0.56201171875, -1.22265625, 0, 
88, 1651161832, 0.5982505083084106, -0.010863021947443485, -0.00018634933803696185, 0.8012354373931885, -0.17980101704597473, -0.14917969703674316, 9.85447883605957, 0.35310500860214233, 0.3152984380722046, -0.6928138136863708, 1.578125, -0.56103515625, -1.224609375, 0, 
89, 1651170165, 0.5982520580291748, -0.010857741348445415, -0.0001867415994638577, 0.8012343645095825, -0.17816300690174103, -0.15214097499847412, 9.845287322998047, 0.339811235666275, 0.2681169807910919, -0.7866899967193604, 1.5751953125, -0.5595703125, -1.22265625, 0, 
90, 1651178498, 0.5982486009597778, -0.01086355373263359, -0.00018959719454869628, 0.8012368083000183, -0.18462203443050385, -0.13920147716999054, 9.852725982666016, 0.21658115088939667, 0.3657328486442566, -0.8080010414123535, 1.5751953125, -0.560546875, -1.22412109375, 0, 
91, 1651186831, 0.5982480645179749, -0.01085655391216278, -0.00018817634554579854, 0.8012372851371765, -0.1868036538362503, -0.14071787893772125, 9.845352172851562, 0.3741855323314667, 0.2620464265346527, -0.7504457235336304, 1.57373046875, -0.56298828125, -1.22265625, 0, 
92, 1651195164, 0.5982446670532227, -0.010855542495846748, -0.00018741415988188237, 0.8012399673461914, -0.1727338284254074, -0.13021732866764069, 9.829164505004883, 0.31263455748558044, 0.3201907277107239, -0.8094354271888733, 1.57666015625, -0.5615234375, -1.2216796875, 0, 
93, 1651203497, 0.5982452630996704, -0.010855553671717644, -0.00018505124899093062, 0.8012394905090332, -0.17110314965248108, -0.1390441209077835, 9.841876029968262, 0.3266199231147766, 0.3480846583843231, -0.7714495658874512, 1.57568359375, -0.56396484375, -1.21923828125, 0, 
94, 1651211830, 0.5982369184494019, -0.010851521044969559, -0.00018275064940098673, 0.8012458086013794, -0.18831290304660797, -0.12998145818710327, 9.830817222595215, 0.3552822470664978, 0.29757338762283325, -0.7240889072418213, 1.57470703125, -0.5615234375, -1.22216796875, 0, 
95, 1651220163, 0.5982351303100586, -0.01084903534501791, -0.00018369298777543008, 0.8012471199035645, -0.16523811221122742, -0.12501052021980286, 9.843950271606445, 0.3094584047794342, 0.29337266087532043, -0.7293140888214111, 1.5751953125, -0.5595703125, -1.220703125, 0, 
96, 1651228496, 0.5982272624969482, -0.010851658880710602, -0.0001835453585954383, 0.8012530207633972, -0.16932210326194763, -0.12669114768505096, 9.853048324584961, 0.2754170596599579, 0.3549748659133911, -0.7356151938438416, 1.57568359375, -0.564453125, -1.22314453125, 0, 
97, 1651236829, 0.5982264876365662, -0.010856910608708858, -0.0001898520567920059, 0.8012535572052002, -0.19324852526187897, -0.13841499388217926, 9.861767768859863, 0.18902023136615753, 0.33356136083602905, -0.74775630235672, 1.57666015625, -0.56396484375, -1.2236328125, 0, 
98, 1651245162, 0.5982193350791931, -0.010859696194529533, -0.0001988207222893834, 0.80125892162323, -0.16935071349143982, -0.14608965814113617, 9.845444679260254, 0.17375414073467255, 0.2807960510253906, -0.7498310208320618, 1.57666015625, -0.56103515625, -1.22265625, 0, 
99, 1651253495, 0.5982200503349304, -0.010858631692826748, -0.00020508765010163188, 0.801258385181427, -0.17760509252548218, -0.1333647519350052, 9.845523834228516, 0.23981325328350067, 0.26596540212631226, -0.7757526636123657, 1.57470703125, -0.56103515625, -1.2236328125, 0, 
100, 1651261828, 0.5982145071029663, -0.01085875928401947, -0.00021051254589110613, 0.8012624979019165, -0.16573137044906616, -0.1216484010219574, 9.854972839355469, 0.2361760437488556, 0.28061676025390625, -0.770783543586731, 1.57373046875, -0.56298828125, -1.2216796875, 0, 
101, 1651270161, 0.5982143878936768, -0.010854705236852169, -0.00022009456006344408, 0.8012626767158508, -0.15826380252838135, -0.1280716508626938, 9.834822654724121, 0.22787705063819885, 0.2049010545015335, -0.7581813335418701, 1.576171875, -0.56201171875, -1.22216796875, 0, 
102, 1651278494, 0.5982077121734619, -0.010853378102183342, -0.00022033012646716088, 0.8012676239013672, -0.1903514564037323, -0.11453847587108612, 9.841954231262207, 0.3044123649597168, 0.30822888016700745, -0.7603585720062256, 1.5791015625, -0.56103515625, -1.22119140625, 0, 
103, 1651286827, 0.5982105135917664, -0.010851590894162655, -0.00022418781009037048, 0.8012655973434448, -0.1904018074274063, -0.12136972695589066, 9.8363676071167, 0.27257388830184937, 0.2766977846622467, -0.8083084225654602, 1.572265625, -0.56396484375, -1.22265625, 0, 
104, 1651295160, 0.5982066988945007, -0.01084850449115038, -0.00023158747353591025, 0.801268458366394, -0.18101699650287628, -0.13910134136676788, 9.850894927978516, 0.24070976674556732, 0.23005427420139313, -0.7989848256111145, 1.57763671875, -0.5595703125, -1.22314453125, 0, 
105, 1651303493, 0.5982024073600769, -0.010850063525140285, -0.00023218280693981797, 0.8012716770172119, -0.18324892222881317, -0.1408827006816864, 9.865487098693848, 0.280335009098053, 0.34004178643226624, -0.6881520748138428, 1.57421875, -0.5625, -1.2236328125, 0, 
106, 1651311826, 0.5981995463371277, -0.010844847187399864, -0.0002292550343554467, 0.8012738823890686, -0.1657029688358307, -0.12465275824069977, 9.834773063659668, 0.3706763982772827, 0.2919894754886627, -0.8141996264457703, 1.57568359375, -0.5625, -1.2236328125, 0, 
107, 1651320159, 0.5981989502906799, -0.010843856260180473, -0.00022981771326158196, 0.8012743592262268, -0.1743505448102951, -0.15038852393627167, 9.852640151977539, 0.30256813764572144, 0.3130187690258026, -0.7488834261894226, 1.57568359375, -0.56494140625, -1.2236328125, 0, 
108, 1651328492, 0.5981926321983337, -0.010838004760444164, -0.00022897320741321892, 0.8012790679931641, -0.1776837706565857, -0.128229022026062, 9.862053871154785, 0.35448819398880005, 0.26668259501457214, -0.7603329420089722, 1.57373046875, -0.56201171875, -1.22314453125, 0, 
109, 1651336825, 0.5981886386871338, -0.010835726745426655, -0.00022321080905385315, 0.8012821078300476, -0.1501167118549347, -0.1336723268032074, 9.847640991210938, 0.3817673325538635, 0.3504667580127716, -0.6907902956008911, 1.57666015625, -0.56103515625, -1.22021484375, 0, 
110, 1651345158, 0.5981799364089966, -0.010833858512341976, -0.00021082715829834342, 0.8012886047363281, -0.1812029778957367, -0.10330136120319366, 9.845845222473145, 0.4480057656764984, 0.4045640230178833, -0.7195806503295898, 1.57470703125, -0.56005859375, -1.22265625, 0, 
111, 1651353491, 0.5981805920600891, -0.0108298659324646, -0.00020915216009598225, 0.8012881875038147, -0.18252624571323395, -0.1264837235212326, 9.841861724853516, 0.35059481859207153, 0.2978038787841797, -0.7700151205062866, 1.57421875, -0.55908203125, -1.22119140625, 0, 
112, 1651361824, 0.5981792211532593, -0.010822909884154797, -0.00020689278608188033, 0.8012893199920654, -0.178420290350914, -0.14216262102127075, 9.830717086791992, 0.379564493894577, 0.2677071690559387, -0.8388917446136475, 1.5712890625, -0.5615234375, -1.22119140625, 0, 
113, 1651370157, 0.5981764197349548, -0.010818135924637318, -0.00020616392430383712, 0.8012915253639221, -0.17252656817436218, -0.12713463604450226, 9.8657808303833, 0.3473674952983856, 0.2809754014015198, -0.7111024856567383, 1.57666015625, -0.56298828125, -1.22265625, 0, 
114, 1651378490, 0.5981694459915161, -0.010819799266755581, -0.00020675989799201488, 0.801296591758728, -0.18686802685260773, -0.13998828828334808, 9.856281280517578, 0.27577564120292664, 0.33868423104286194, -0.7489089369773865, 1.576171875, -0.56494140625, -1.2236328125, 0, 
115, 1651386823, 0.5981640219688416, -0.010820931755006313, -0.00021183832723181695, 0.801300585269928, -0.17498715221881866, -0.12611177563667297, 9.845609664916992, 0.2335633933544159, 0.29790636897087097, -0.6690694093704224, 1.57373046875, -0.5595703125, -1.22314453125, 0, 
116, 1651395156, 0.5981552004814148, -0.01081856805831194, -0.00021246171672828496, 0.8013072609901428, -0.18666774034500122, -0.12467405200004578, 9.863805770874023, 0.309407114982605, 0.29329580068588257, -0.7194781303405762, 1.5751953125, -0.55908203125, -1.22216796875, 0, 
117, 1651403489, 0.5981568694114685, -0.010818498209118843, -0.00021485789329744875, 0.8013060092926025, -0.1648801863193512, -0.12110478430986404, 9.836639404296875, 0.2750840485095978, 0.30774223804473877, -0.790096640586853, 1.5732421875, -0.560546875, -1.22509765625, 0, 
118, 1651411822, 0.5981539487838745, -0.010820066556334496, -0.00021697793272323906, 0.8013082146644592, -0.17206136882305145, -0.13769903779029846, 9.850980758666992, 0.26009973883628845, 0.3239560127258301, -0.8130469918251038, 1.5732421875, -0.56396484375, -1.2216796875, 0, 
119, 1651420155, 0.5981543660163879, -0.010823003947734833, -0.00021308338909875602, 0.8013078570365906, -0.1819608509540558, -0.13041023910045624, 9.84912109375, 0.3189612329006195, 0.3922179639339447, -0.7663522362709045, 1.576171875, -0.56005859375, -1.22265625, 0, 
120, 1651428488, 0.598145067691803, -0.010824956931173801, -0.00021227959950920194, 0.8013147711753845, -0.16187599301338196, -0.14003120362758636, 9.847404479980469, 0.28835225105285645, 0.35346367955207825, -0.7110256552696228, 1.5751953125, -0.56201171875, -1.2216796875, 0, 
121, 1651436821, 0.5981456637382507, -0.010831424966454506, -0.00021688338893000036, 0.8013142943382263, -0.17550912499427795, -0.13673338294029236, 9.861939430236816, 0.19667892158031464, 0.3616602122783661, -0.7722179293632507, 1.5771484375, -0.5634765625, -1.2236328125, 0, 
122, 1651445154, 0.5981420278549194, -0.01082625426352024, -0.0002177228161599487, 0.8013169765472412, -0.1746649146080017, -0.1311327964067459, 9.880329132080078, 0.3303851783275604, 0.25989484786987305, -0.8064384460449219, 1.5732421875, -0.56005859375, -1.22216796875, 0, 
123, 1651453487, 0.5981441736221313, -0.010833239182829857, -0.00022237736266106367, 0.8013152480125427, -0.1827124059200287, -0.11799368262290955, 9.863913536071777, 0.19178657233715057, 0.3682430386543274, -0.7984468936920166, 1.578125, -0.56103515625, -1.2216796875, 0, 
124, 1651461820, 0.5981375575065613, -0.010832215659320354, -0.00022911830455996096, 0.8013201951980591, -0.17320609092712402, -0.13557498157024384, 9.860143661499023, 0.23007988929748535, 0.2573077976703644, -0.7545953392982483, 1.5751953125, -0.56201171875, -1.22509765625, 0, 
125, 1651470153, 0.5981360673904419, -0.010828708298504353, -0.00021845447190571576, 0.8013213276863098, -0.17575228214263916, -0.1185009628534317, 9.82918643951416, 0.44698119163513184, 0.37687504291534424, -0.7328232526779175, 1.57421875, -0.5615234375, -1.22705078125, 0, 
126, 1651478486, 0.5981292128562927, -0.010821737349033356, -0.00022261244885157794, 0.80132657289505, -0.18854893743991852, -0.13513150811195374, 9.845294952392578, 0.3081008791923523, 0.21481379866600037, -0.7511119246482849, 1.5751953125, -0.5595703125, -1.22021484375, 0, 
127, 1651486819, 0.5981312394142151, -0.010817406699061394, -0.00021818256936967373, 0.8013251423835754, -0.16666124761104584, -0.1372988224029541, 9.840051651000977, 0.38473862409591675, 0.31680965423583984, -0.7926581501960754, 1.57275390625, -0.56103515625, -1.22412109375, 0, 
128, 1651495152, 0.5981253981590271, -0.010814930312335491, -0.00021804693096783012, 0.8013295531272888, -0.1631062775850296, -0.14010272920131683, 9.827240943908691, 0.317808598279953, 0.29706108570098877, -0.7636883854866028, 1.5771484375, -0.56298828125, -1.2236328125, 0, 
129, 1651503485, 0.5981247425079346, -0.010814820416271687, -0.0002195406414102763, 0.801330029964447, -0.1782202422618866, -0.14804954826831818, 9.859929084777832, 0.28448453545570374, 0.3159131705760956, -0.7490114569664001, 1.5751953125, -0.5615234375, -1.22021484375, 0, 
130, 1651511818, 0.5981191396713257, -0.010812755674123764, -0.0002218094014097005, 0.8013342618942261, -0.16741229593753815, -0.15072470903396606, 9.852697372436523, 0.2886084020137787, 0.2833062410354614, -0.7704761624336243, 1.57470703125, -0.560546875, -1.22216796875, 0, 
131, 1651520151, 0.5981226563453674, -0.010807939805090427, -0.000220361165702343, 0.8013317584991455, -0.17555221915245056, -0.14344310760498047, 9.860008239746094, 0.35607632994651794, 0.28678980469703674, -0.8192457556724548, 1.57568359375, -0.560546875, -1.22314453125, 0, 
132, 1651528484, 0.5981132388114929, -0.01080704852938652, -0.00022776221157982945, 0.8013387322425842, -0.18752607703208923, -0.12875832617282867, 9.85452938079834, 0.22170400619506836, 0.25351691246032715, -0.705544114112854, 1.57666015625, -0.56103515625, -1.21875, 0, 
133, 1651536817, 0.598112940788269, -0.01080646738409996, -0.00022541549697052687, 0.8013389706611633, -0.16813471913337708, -0.118343785405159, 9.851238250732422, 0.33146101236343384, 0.34162983298301697, -0.7551076412200928, 1.57568359375, -0.56103515625, -1.22314453125, 0, 
134, 1651545150, 0.5981017351150513, -0.01079852506518364, -0.000222841277718544, 0.8013474941253662, -0.1879338026046753, -0.13523879647254944, 9.847126007080078, 0.3886319696903229, 0.25717973709106445, -0.6699915528297424, 1.5771484375, -0.56298828125, -1.22216796875, 0, 
135, 1651553483, 0.598097562789917, -0.010793817229568958, -0.0002200611779699102, 0.8013506531715393, -0.16641804575920105, -0.1394875943660736, 9.874821662902832, 0.36977988481521606, 0.2978294789791107, -0.6878958940505981, 1.57666015625, -0.56005859375, -1.22412109375, 0, 
136, 1651561816, 0.598087728023529, -0.01078944280743599, -0.0002185613411711529, 0.8013581037521362, -0.18015895783901215, -0.12478876113891602, 9.8619966506958, 0.3486994206905365, 0.2892231047153473, -0.6979110240936279, 1.57568359375, -0.56298828125, -1.22265625, 0, 
137, 1651570149, 0.5980886816978455, -0.010783141478896141, -0.00021283054957166314, 0.8013574481010437, -0.17538078129291534, -0.11480329185724258, 9.853012084960938, 0.4143999218940735, 0.30592361092567444, -0.7744464874267578, 1.57666015625, -0.560546875, -1.22314453125, 0, 
138, 1651578482, 0.5980832576751709, -0.0107834842056036, -0.0002116176183335483, 0.8013613820075989, -0.1584000140428543, -0.13547518849372864, 9.858484268188477, 0.3070506155490875, 0.33786454796791077, -0.7733449935913086, 1.57763671875, -0.56005859375, -1.2216796875, 0, 
139, 1651586815, 0.5980830192565918, -0.010783827863633633, -0.00021304843539837748, 0.8013615608215332, -0.17145363986492157, -0.13545338809490204, 9.841839790344238, 0.28279396891593933, 0.3207799196243286, -0.7572080492973328, 1.57568359375, -0.56298828125, -1.22021484375, 0, 
140, 1651595148, 0.5980766415596008, -0.010787630453705788, -0.00022008022642694414, 0.8013662099838257, -0.18309132754802704, -0.13196280598640442, 9.84538745880127, 0.1862795054912567, 0.3086899518966675, -0.7546465992927551, 1.57373046875, -0.5634765625, -1.2216796875, 0, 
141, 1651603481, 0.5980730652809143, -0.010788509622216225, -0.00022472381533589214, 0.8013688325881958, -0.1667184680700302, -0.1401742696762085, 9.852826118469238, 0.2419392615556717, 0.29821375012397766, -0.7002163529396057, 1.5732421875, -0.560546875, -1.224609375, 0, 
142, 1651611814, 0.5980686545372009, -0.010790291242301464, -0.00022599607473239303, 0.8013721108436584, -0.18143901228904724, -0.1497662216424942, 9.859857559204102, 0.26793771982192993, 0.33379191160202026, -0.7949633598327637, 1.5771484375, -0.5625, -1.22265625, 0, 
143, 1651620147, 0.5980666875839233, -0.010792843997478485, -0.00022696421365253627, 0.8013736009597778, -0.1718255877494812, -0.12872256338596344, 9.856553077697754, 0.2688085734844208, 0.3481614887714386, -0.726035475730896, 1.57470703125, -0.56298828125, -1.2255859375, 0, 
144, 1651628480, 0.5980560779571533, -0.010793228633701801, -0.00022984802490100265, 0.8013814687728882, -0.186038076877594, -0.145402729511261, 9.84701156616211, 0.2597155272960663, 0.3051295578479767, -0.6836695075035095, 1.57177734375, -0.56103515625, -1.22265625, 0, 
145, 1651636813, 0.5980542302131653, -0.01079720351845026, -0.0002322854270460084, 0.801382839679718, -0.16582435369491577, -0.12040380388498306, 9.862217903137207, 0.24086347222328186, 0.35082536935806274, -0.7311070561408997, 1.57666015625, -0.5576171875, -1.22412109375, 0, 
146, 1651645146, 0.5980504155158997, -0.010793082416057587, -0.00023038132349029183, 0.8013857007026672, -0.1803303211927414, -0.12974542379379272, 9.847261428833008, 0.35251590609550476, 0.2964719831943512, -0.7995226979255676, 1.5751953125, -0.56298828125, -1.2236328125, 0, 
147, 1651653479, 0.5980530381202698, -0.010793983936309814, -0.00024247514375019819, 0.8013836741447449, -0.17548784613609314, -0.12920895218849182, 9.865652084350586, 0.16046036779880524, 0.23781535029411316, -0.8076936602592468, 1.578125, -0.56201171875, -1.22412109375, 0, 
148, 1651661812, 0.5980458855628967, -0.01079590991139412, -0.0002496165398042649, 0.801389217376709, -0.1654595583677292, -0.14656175673007965, 9.839943885803223, 0.20146876573562622, 0.2876606583595276, -0.7431970834732056, 1.57275390625, -0.56298828125, -1.220703125, 0, 
149, 1651670145, 0.5980486869812012, -0.010791348293423653, -0.0002526655443944037, 0.8013871908187866, -0.16002371907234192, -0.1186516284942627, 9.853148460388184, 0.3044123649597168, 0.2527484595775604, -0.8083083629608154, 1.57763671875, -0.56005859375, -1.22314453125, 0, 
150, 1651678478, 0.5980442762374878, -0.010789223946630955, -0.000247053598286584, 0.8013904690742493, -0.1792719066143036, -0.14100418984889984, 9.839822769165039, 0.3757992386817932, 0.3478541076183319, -0.7925300002098083, 1.576171875, -0.56201171875, -1.22314453125, 0, 
151, 1651686811, 0.5980477929115295, -0.01079296600073576, -0.00025141716469079256, 0.8013877868652344, -0.17475110292434692, -0.1311187595129013, 9.843656539916992, 0.22219067811965942, 0.33450907468795776, -0.8231646418571472, 1.57373046875, -0.56201171875, -1.22412109375, 0, 
152, 1651695144, 0.5980444550514221, -0.010788937099277973, -0.0002504617441445589, 0.8013902902603149, -0.18046623468399048, -0.14230580627918243, 9.865423202514648, 0.33963194489479065, 0.28804486989974976, -0.8078473210334778, 1.5751953125, -0.5615234375, -1.224609375, 0, 
153, 1651703477, 0.5980389714241028, -0.010784362442791462, -0.0002422588731860742, 0.8013944625854492, -0.17925739288330078, -0.1343303918838501, 9.856374740600586, 0.4291536808013916, 0.34352532029151917, -0.664279580116272, 1.57373046875, -0.5634765625, -1.22607421875, 0, 
154, 1651711810, 0.5980268716812134, -0.010789448395371437, -0.0002470824692863971, 0.8014034032821655, -0.17226922512054443, -0.13513895869255066, 9.850966453552246, 0.19959892332553864, 0.34122002124786377, -0.6593104004859924, 1.576171875, -0.564453125, -1.22314453125, 0, 
155, 1651720143, 0.5980250239372253, -0.010788285173475742, -0.0002555417304392904, 0.8014048337936401, -0.16866382956504822, -0.14385776221752167, 9.852747917175293, 0.21717028319835663, 0.2452947199344635, -0.7285712957382202, 1.57177734375, -0.56689453125, -1.2236328125, 0, 
156, 1651728476, 0.598015546798706, -0.010786195285618305, -0.00025339619605802, 0.8014118671417236, -0.17474395036697388, -0.1364404857158661, 9.845423698425293, 0.3365582227706909, 0.31857702136039734, -0.7060563564300537, 1.57421875, -0.56640625, -1.22314453125, 0, 
157, 1651736809, 0.5980144143104553, -0.010783668607473373, -0.0002494289365131408, 0.8014127612113953, -0.20446401834487915, -0.1355106085538864, 9.839529037475586, 0.3643753230571747, 0.3325623869895935, -0.7402001619338989, 1.5751953125, -0.5615234375, -1.224609375, 0, 
158, 1651745142, 0.5980090498924255, -0.01079205796122551, -0.00025240896502509713, 0.8014165759086609, -0.18624572455883026, -0.1490151733160019, 9.863433837890625, 0.1959104686975479, 0.3926277756690979, -0.7820793986320496, 1.5703125, -0.5625, -1.22802734375, 0, 
159, 1651753475, 0.5980129241943359, -0.010787737555801868, -0.0002556273539084941, 0.8014137744903564, -0.19318430125713348, -0.12313646823167801, 9.837984085083008, 0.2996225357055664, 0.254387766122818, -0.8280057311058044, 1.5751953125, -0.56591796875, -1.22216796875, 0, 
160, 1651761808, 0.598103940486908, -0.010808712802827358, -0.0001592878979863599, 0.8013455271720886, -0.19207529723644257, -0.11723509430885315, 9.8453950881958, 0.29099056124687195, 0.32272660732269287, -0.7719362378120422, 1.57373046875, -0.564453125, -1.2236328125, 0, 
161, 1651770141, 0.598103940486908, -0.010809420607984066, -0.00015953699767123908, 0.8013455271720886, -0.17757648229599, -0.12727053463459015, 9.861968040466309, 0.2906319200992584, 0.334150493144989, -0.7604097723960876, 1.57373046875, -0.5625, -1.22314453125, 0, 
162, 1651778474, 0.598092794418335, -0.010808158665895462, -0.00016867181693669409, 0.8013538718223572, -0.20356275141239166, -0.12807880342006683, 9.856095314025879, 0.20559266209602356, 0.23486971855163574, -0.6762670278549194, 1.57568359375, -0.56298828125, -1.2275390625, 0, 
163, 1651786807, 0.5980912446975708, -0.01080863457173109, -0.0001634437940083444, 0.8013550043106079, -0.19160319864749908, -0.12376563996076584, 9.880114555358887, 0.35500043630599976, 0.3765932619571686, -0.731875479221344, 1.5732421875, -0.56396484375, -1.22412109375, 0, 
164, 1651795140, 0.5980905890464783, -0.01080892514437437, -0.00015988711675163358, 0.8013555407524109, -0.18170367181301117, -0.1408180147409439, 9.852604866027832, 0.33335644006729126, 0.3569727838039398, -0.8501876592636108, 1.57568359375, -0.5634765625, -1.2236328125, 0, 
165, 1651803473, 0.5980919003486633, -0.01080559752881527, -0.00015591408009640872, 0.8013545870780945, -0.18808437883853912, -0.13145527243614197, 9.848949432373047, 0.3714192509651184, 0.32313641905784607, -0.7812086343765259, 1.57177734375, -0.56396484375, -1.224609375, 0, 
166, 1651811806, 0.5980868935585022, -0.010800955817103386, -0.00015412441280204803, 0.8013584613800049, -0.17527326941490173, -0.14324283599853516, 9.861817359924316, 0.35418078303337097, 0.2882753610610962, -0.7765723466873169, 1.57373046875, -0.56640625, -1.2255859375, 0, 
167, 1651820139, 0.5980848073959351, -0.010797164402902126, -0.0001502843661000952, 0.8013600707054138, -0.1888350546360016, -0.13037486374378204, 9.841632843017578, 0.3743904232978821, 0.3180135190486908, -0.7221677303314209, 1.57177734375, -0.56689453125, -1.2255859375, 0, 
168, 1651828472, 0.5980759859085083, -0.010795308277010918, -0.000155872869072482, 0.8013666868209839, -0.18091686069965363, -0.12430925667285919, 9.878419876098633, 0.249572291970253, 0.2574614882469177, -0.7168399691581726, 1.57275390625, -0.564453125, -1.22705078125, 0, 
169, 1651836805, 0.5980713367462158, -0.010794037021696568, -0.00015360000543296337, 0.8013701438903809, -0.18329159915447235, -0.11281464248895645, 9.852876663208008, 0.3343810439109802, 0.3315122425556183, -0.6797762513160706, 1.57470703125, -0.568359375, -1.22802734375, 0, 
170, 1651845138, 0.5980641841888428, -0.010796664282679558, -0.00015596994489897043, 0.8013755083084106, -0.18668919801712036, -0.12907305359840393, 9.859979629516602, 0.2494698315858841, 0.3346627950668335, -0.7426847219467163, 1.57177734375, -0.5654296875, -1.228515625, 0, 
171, 1651853471, 0.5980620384216309, -0.010803409852087498, -0.0001589317835168913, 0.80137699842453, -0.1831628531217575, -0.13210585713386536, 9.849006652832031, 0.21058742702007294, 0.3762090504169464, -0.7230641841888428, 1.57275390625, -0.56787109375, -1.22705078125, 0, 
172, 1651861804, 0.5980595946311951, -0.010799459181725979, -0.00015296635683625937, 0.8013788461685181, -0.18920700252056122, -0.13968786597251892, 9.87631607055664, 0.39616256952285767, 0.3305900990962982, -0.825239360332489, 1.56640625, -0.5654296875, -1.22412109375, 0, 
173, 1651870137, 0.5980595350265503, -0.010800612159073353, -0.00015838952094782144, 0.8013788461685181, -0.16554540395736694, -0.13581103086471558, 9.847383499145508, 0.23089951276779175, 0.2965487837791443, -0.7594107985496521, 1.57080078125, -0.56982421875, -1.2275390625, 0, 
174, 1651878470, 0.5980536341667175, -0.010800113901495934, -0.00015380883996840566, 0.8013833165168762, -0.17736904323101044, -0.134466290473938, 9.871030807495117, 0.3507997989654541, 0.35702401399612427, -0.7664291858673096, 1.572265625, -0.56591796875, -1.22900390625, 0, 
175, 1651886803, 0.598054051399231, -0.010799163021147251, -0.000150682230014354, 0.8013830780982971, -0.1668686717748642, -0.12583281099796295, 9.843807220458984, 0.342961847782135, 0.34203973412513733, -0.7649179697036743, 1.57080078125, -0.5693359375, -1.22900390625, 0, 
176, 1651895136, 0.5980474948883057, -0.01079933438450098, -0.00014977791579440236, 0.8013879656791687, -0.1675124317407608, -0.13117597997188568, 9.874878883361816, 0.30533453822135925, 0.3344835042953491, -0.753750205039978, 1.5732421875, -0.5673828125, -1.22802734375, 0, 
177, 1651903469, 0.5980494618415833, -0.010803962126374245, -0.00015019721467979252, 0.8013863563537598, -0.17537365853786469, -0.1236015185713768, 9.854693412780762, 0.2570260167121887, 0.3744417130947113, -0.7933240532875061, 1.56591796875, -0.56982421875, -1.22900390625, 0, 
178, 1651911802, 0.5980425477027893, -0.010803375393152237, -0.00015029535279609263, 0.8013916015625, -0.18852747976779938, -0.1332431584596634, 9.874549865722656, 0.30082637071609497, 0.31796231865882874, -0.7505995631217957, 1.57080078125, -0.56884765625, -1.2314453125, 0, 
179, 1651920135, 0.5980405807495117, -0.010800359770655632, -0.00015040293510537595, 0.8013930916786194, -0.17957927286624908, -0.13219884037971497, 9.858198165893555, 0.32423779368400574, 0.2921943664550781, -0.7259586453437805, 1.56982421875, -0.5693359375, -1.2294921875, 0, 
180, 1651928468, 0.5980359315872192, -0.010805390775203705, -0.00015073487884365022, 0.8013964891433716, -0.1703091859817505, -0.14227719604969025, 9.860086441040039, 0.25203126668930054, 0.3775922358036041, -0.7916591167449951, 1.56884765625, -0.56982421875, -1.22998046875, 0, 
181, 1651936801, 0.5980370044708252, -0.010798371396958828, -0.00015395756054203957, 0.8013957738876343, -0.17859965562820435, -0.129373699426651, 9.845430374145508, 0.3214714527130127, 0.22349697351455688, -0.7771357893943787, 1.57080078125, -0.56689453125, -1.2294921875, 0, 
182, 1651945134, 0.5980327725410461, -0.010797638446092606, -0.0001503659295849502, 0.8013989925384521, -0.17199726402759552, -0.12882985174655914, 9.873004913330078, 0.34306424856185913, 0.34716251492500305, -0.8026220202445984, 1.5712890625, -0.57080078125, -1.22998046875, 0, 
183, 1651953467, 0.5980334281921387, -0.010792805813252926, -0.00014601754082832485, 0.801398515701294, -0.1838638335466385, -0.11217088252305984, 9.843685150146484, 0.38809409737586975, 0.310482919216156, -0.7712957859039307, 1.5693359375, -0.568359375, -1.2353515625, 0, 
184, 1651961800, 0.5980243682861328, -0.010792109183967113, -0.00014122476568445563, 0.8014053702354431, -0.1633133888244629, -0.12892967462539673, 9.849328994750977, 0.3553078770637512, 0.3552822768688202, -0.7155848741531372, 1.568359375, -0.5673828125, -1.2333984375, 0, 
185, 1651970133, 0.5980214476585388, -0.010790885426104069, -0.00014619580178987235, 0.8014075756072998, -0.1994999498128891, -0.1467834860086441, 9.846782684326172, 0.2540803849697113, 0.2738801836967468, -0.7101801633834839, 1.5673828125, -0.56591796875, -1.2294921875, 0, 
186, 1651978466, 0.5980141162872314, -0.010788382962346077, -0.00015092456305865198, 0.8014130592346191, -0.1753447949886322, -0.12878693640232086, 9.861960411071777, 0.26460784673690796, 0.25792255997657776, -0.7413015961647034, 1.5693359375, -0.5693359375, -1.22998046875, 0, 
187, 1651986799, 0.5980098843574524, -0.010784219019114971, -0.00014667637879028916, 0.801416277885437, -0.1590002030134201, -0.12362945824861526, 9.83297061920166, 0.38076841831207275, 0.31481173634529114, -0.6860772371292114, 1.56640625, -0.568359375, -1.23291015625, 0, 
188, 1651995132, 0.5980024933815002, -0.010781185701489449, -0.0001414478028891608, 0.8014216423034668, -0.16849951446056366, -0.12731344997882843, 9.84010124206543, 0.3790266513824463, 0.33471402525901794, -0.7433763742446899, 1.5693359375, -0.56982421875, -1.232421875, 0, 
189, 1652003465, 0.5980035066604614, -0.01077677309513092, -0.00013803341425955296, 0.8014209270477295, -0.17337776720523834, -0.11423090100288391, 9.84565258026123, 0.3750564754009247, 0.30689698457717896, -0.7747026085853577, 1.56982421875, -0.5703125, -1.2333984375, 0, 
190, 1652011798, 0.5979915857315063, -0.010775403119623661, -0.00012990379764232785, 0.8014299869537354, -0.18001526594161987, -0.1360682100057602, 9.849014282226562, 0.39708468317985535, 0.37585046887397766, -0.6692231297492981, 1.5654296875, -0.57080078125, -1.236328125, 0, 
191, 1652020131, 0.5979915261268616, -0.01077436376363039, -0.0001289578212890774, 0.8014299869537354, -0.16860681772232056, -0.11839385330677032, 9.849349975585938, 0.3187819719314575, 0.3233669400215149, -0.7586680054664612, 1.568359375, -0.5693359375, -1.234375, 0, 
192, 1652028464, 0.5979861617088318, -0.010765383951365948, -0.00012967173825018108, 0.8014341592788696, -0.19707512855529785, -0.11032544821500778, 9.856317520141602, 0.36268478631973267, 0.21968050301074982, -0.78341144323349, 1.568359375, -0.56787109375, -1.23388671875, 0, 
193, 1652036797, 0.5979897379875183, -0.010762878693640232, -0.0001242806320078671, 0.8014315366744995, -0.19318419694900513, -0.114960677921772, 9.839859008789062, 0.3809989094734192, 0.34495970606803894, -0.8203983306884766, 1.568359375, -0.5703125, -1.2314453125, 0, 
194, 1652045130, 0.5979901552200317, -0.010761965066194534, -0.00012325313582550734, 0.8014312386512756, -0.19094514846801758, -0.1289013773202896, 9.832433700561523, 0.31639981269836426, 0.32380229234695435, -0.8751103281974792, 1.5634765625, -0.56982421875, -1.23583984375, 0, 
195, 1652053463, 0.5979901552200317, -0.010770267806947231, -0.00011517470557009801, 0.8014311194419861, -0.17516613006591797, -0.12774288654327393, 9.847333908081055, 0.32101038098335266, 0.4857611358165741, -0.7579507231712341, 1.568359375, -0.56982421875, -1.23486328125, 0, 
196, 1652061796, 0.5979830622673035, -0.010773412883281708, -0.00011863303370773792, 0.8014363646507263, -0.18600967526435852, -0.14249178767204285, 9.845194816589355, 0.23325605690479279, 0.3308975100517273, -0.7543904781341553, 1.56689453125, -0.57080078125, -1.23388671875, 0, 
197, 1652070129, 0.5979906916618347, -0.010769271291792393, -0.0001186003937618807, 0.8014307618141174, -0.16407887637615204, -0.11343678086996078, 9.840309143066406, 0.3356873393058777, 0.28176936507225037, -0.8899153470993042, 1.56640625, -0.572265625, -1.23583984375, 0, 
198, 1652078462, 0.5979858040809631, -0.010765725746750832, -0.00011686370271490887, 0.8014343976974487, -0.18721170723438263, -0.1362762749195099, 9.848906517028809, 0.34421688318252563, 0.3012618124485016, -0.7913517355918884, 1.56640625, -0.56884765625, -1.23828125, 0, 
199, 1652086795, 0.597984790802002, -0.010758253745734692, -0.0001173163327621296, 0.8014352321624756, -0.1678554266691208, -0.12173400074243546, 9.82735538482666, 0.35692158341407776, 0.24065856635570526, -0.7423518300056458, 1.5634765625, -0.57080078125, -1.23779296875, 0, 
200, 1652095128, 0.5979806184768677, -0.01075370516628027, -0.00011603208986343816, 0.8014384508132935, -0.1860382854938507, -0.1408180147409439, 9.861702919006348, 0.3479821979999542, 0.28497114777565, -0.7995995283126831, 1.5625, -0.572265625, -1.23974609375, 0, 
201, 1652103461, 0.5979787707328796, -0.010759071446955204, -0.00011945411824854091, 0.8014397621154785, -0.1719471961259842, -0.13398705422878265, 9.85283374786377, 0.21919380128383636, 0.35827910900115967, -0.7298263907432556, 1.56201171875, -0.5693359375, -1.23681640625, 0, 
202, 1652111794, 0.5979743599891663, -0.010758779011666775, -0.00012370414333418012, 0.8014430403709412, -0.17882107198238373, -0.11752836406230927, 9.852862358093262, 0.2528252899646759, 0.28732767701148987, -0.8003679513931274, 1.56787109375, -0.57080078125, -1.23974609375, 0, 
203, 1652120127, 0.5979728698730469, -0.010763010941445827, -0.00012445627362467349, 0.8014440536499023, -0.1563897579908371, -0.1324634999036789, 9.853083610534668, 0.2566930651664734, 0.3675258457660675, -0.7343856692314148, 1.56396484375, -0.57080078125, -1.2373046875, 0, 
204, 1652128460, 0.5979658365249634, -0.010755290277302265, -0.00012443128798622638, 0.8014494776725769, -0.1633351743221283, -0.14706960320472717, 9.84736156463623, 0.3603282868862152, 0.23919853568077087, -0.7504971623420715, 1.5654296875, -0.56982421875, -1.23779296875, 0, 
205, 1652136793, 0.5979715585708618, -0.010752733796834946, -0.00012461045116651803, 0.8014451861381531, -0.18615274131298065, -0.13865786790847778, 9.850737571716309, 0.32019078731536865, 0.29923832416534424, -0.8571804165840149, 1.5654296875, -0.5712890625, -1.23974609375, 0, 
206, 1652145126, 0.5979616641998291, -0.010748323984444141, -0.00012422550935298204, 0.8014526963233948, -0.18219006061553955, -0.11594042927026749, 9.845501899719238, 0.3358922600746155, 0.27767109870910645, -0.6997040510177612, 1.5625, -0.5693359375, -1.236328125, 0, 
207, 1652153459, 0.5979632139205933, -0.010745469480752945, -0.00012490348308347166, 0.801451563835144, -0.1655382513999939, -0.12744219601154327, 9.852997779846191, 0.3165535032749176, 0.29065752029418945, -0.7850762009620667, 1.56640625, -0.57275390625, -1.23779296875, 0, 
208, 1652161792, 0.5979570150375366, -0.010746371932327747, -0.00012107408110750839, 0.8014562129974365, -0.15601781010627747, -0.13361510634422302, 9.829286575317383, 0.33238309621810913, 0.36639881134033203, -0.7649691104888916, 1.560546875, -0.56884765625, -1.2353515625, 0, 
209, 1652170125, 0.5979579091072083, -0.010744542814791203, -0.00012395808880683035, 0.8014556169509888, -0.16455115377902985, -0.12830054759979248, 9.854844093322754, 0.2822304964065552, 0.2831013798713684, -0.7739085555076599, 1.5673828125, -0.5712890625, -1.23876953125, 0, 
210, 1652178458, 0.5979512333869934, -0.010750917717814445, -0.00012923264876008034, 0.8014604449272156, -0.17530187964439392, -0.1413544863462448, 9.8600435256958, 0.18676622211933136, 0.3525927662849426, -0.7596670389175415, 1.5654296875, -0.5712890625, -1.2353515625, 0, 
211, 1652186791, 0.5979498028755188, -0.010756171308457851, -0.00012871195212937891, 0.8014614582061768, -0.16520921885967255, -0.12942354381084442, 9.847497940063477, 0.26260992884635925, 0.3889905512332916, -0.7343088388442993, 1.5625, -0.5703125, -1.2373046875, 0, 
212, 1652195124, 0.5979428291320801, -0.010759138502180576, -0.00013267011672724038, 0.8014665842056274, -0.1800583004951477, -0.13533861935138702, 9.845380783081055, 0.22849178314208984, 0.3241865634918213, -0.7561578750610352, 1.5654296875, -0.56982421875, -1.23828125, 0, 
213, 1652203457, 0.5979393124580383, -0.010754913091659546, -0.00013742448936682194, 0.8014692664146423, -0.18587377667427063, -0.13526740670204163, 9.8379487991333, 0.2827683389186859, 0.24178555607795715, -0.6986282467842102, 1.56298828125, -0.57080078125, -1.2373046875, 0, 
214, 1652211790, 0.5979311466217041, -0.010754745453596115, -0.0001298545248573646, 0.8014753460884094, -0.17057384550571442, -0.12124069035053253, 9.84565258026123, 0.38076844811439514, 0.38402143120765686, -0.7284433245658875, 1.56494140625, -0.572265625, -1.2373046875, 0, 
215, 1652220123, 0.5979338884353638, -0.01075825933367014, -0.0001314947585342452, 0.8014732599258423, -0.2021465003490448, -0.124280646443367, 9.848771095275879, 0.254387766122818, 0.3529769480228424, -0.8083339929580688, 1.56591796875, -0.56884765625, -1.2373046875, 0, 
216, 1652228456, 0.5979249477386475, -0.010762766003608704, -0.00012789739412255585, 0.8014798164367676, -0.1745651364326477, -0.13526740670204163, 9.852790832519531, 0.2981624901294708, 0.4046921133995056, -0.7224751114845276, 1.5615234375, -0.57177734375, -1.23876953125, 0, 
217, 1652236789, 0.5979247689247131, -0.01076455507427454, -0.0001303269964409992, 0.8014798760414124, -0.16968689858913422, -0.12892283499240875, 9.83643913269043, 0.2596130669116974, 0.32667115330696106, -0.7575409412384033, 1.56591796875, -0.572265625, -1.23828125, 0, 
218, 1652245122, 0.5979192852973938, -0.010764074511826038, -0.00013812640099786222, 0.8014839887619019, -0.19132404029369354, -0.14445140957832336, 9.839629173278809, 0.21422463655471802, 0.25497689843177795, -0.7778787016868591, 1.5634765625, -0.5693359375, -1.2373046875, 0, 
219, 1652253455, 0.5979149341583252, -0.010770710185170174, -0.0001455138117307797, 0.801487147808075, -0.16227641701698303, -0.14058881998062134, 9.825481414794922, 0.16353407502174377, 0.34014421701431274, -0.6877421736717224, 1.56591796875, -0.57275390625, -1.2392578125, 0, 
220, 1652261788, 0.5979108214378357, -0.010780229233205318, -0.00013913068687543273, 0.801490068435669, -0.1568545401096344, -0.11624059081077576, 9.831268310546875, 0.2900940179824829, 0.4818677604198456, -0.7992921471595764, 1.56494140625, -0.572265625, -1.2392578125, 0, 
221, 1652270121, 0.5979143977165222, -0.010784884914755821, -0.000138691917527467, 0.8014873266220093, -0.17768363654613495, -0.1320198029279709, 9.882074356079102, 0.26678505539894104, 0.382894366979599, -0.8211923837661743, 1.564453125, -0.57080078125, -1.23779296875, 0, 
222, 1652278454, 0.5979069471359253, -0.010787665843963623, -0.0001413278660038486, 0.8014928698539734, -0.17321324348449707, -0.1458178609609604, 9.850909233093262, 0.24462877213954926, 0.3327929973602295, -0.7461683750152588, 1.5654296875, -0.57275390625, -1.240234375, 0, 
223, 1652286787, 0.5979046821594238, -0.01078975759446621, -0.00014815325266681612, 0.8014944791793823, -0.17671097815036774, -0.123636893928051, 9.84919261932373, 0.2077186405658722, 0.293936163187027, -0.7203747034072876, 1.56494140625, -0.5712890625, -1.23583984375, 0, 
224, 1652295120, 0.5978923439979553, -0.010793301276862621, -0.0001560961245559156, 0.8015036582946777, -0.1819613128900528, -0.13837915658950806, 9.85997200012207, 0.17928682267665863, 0.2978295087814331, -0.6648430228233337, 1.5654296875, -0.5693359375, -1.23583984375, 0, 
225, 1652303453, 0.5978937149047852, -0.01079943124204874, -0.0001615150977158919, 0.8015025854110718, -0.1824903041124344, -0.12880803644657135, 9.836238861083984, 0.19027531147003174, 0.3510814905166626, -0.7826429009437561, 1.56298828125, -0.572265625, -1.23876953125, 0, 
226, 1652311786, 0.5978890657424927, -0.010805717669427395, -0.00016451443661935627, 0.8015060424804688, -0.1645440012216568, -0.1368410438299179, 9.85844898223877, 0.21276463568210602, 0.3698054850101471, -0.792197048664093, 1.56494140625, -0.5712890625, -1.23876953125, 0, 
227, 1652320119, 0.597896933555603, -0.010807156562805176, -0.00016589340521022677, 0.8015002012252808, -0.18854178488254547, -0.14527423679828644, 9.86530876159668, 0.2737520933151245, 0.3325367867946625, -0.8951406478881836, 1.5673828125, -0.5751953125, -1.23779296875, 0, 
228, 1652328452, 0.5978840589523315, -0.010809686034917831, -0.00017379733617417514, 0.8015096783638, -0.16400037705898285, -0.1362258940935135, 9.876788139343262, 0.18771392107009888, 0.28655925393104553, -0.6533423662185669, 1.5654296875, -0.5703125, -1.23681640625, 0, 
229, 1652336785, 0.5978782176971436, -0.01080242358148098, -0.0001665792806306854, 0.8015141487121582, -0.17765478789806366, -0.12752777338027954, 9.872968673706055, 0.43809306621551514, 0.3068200945854187, -0.6576710939407349, 1.56494140625, -0.57080078125, -1.23828125, 0, 
230, 1652345118, 0.5978758931159973, -0.010796714574098587, -0.00016478837642353028, 0.8015159368515015, -0.17255517840385437, -0.11908052861690521, 9.8456449508667, 0.3649900555610657, 0.2758268713951111, -0.8290046453475952, 1.564453125, -0.5732421875, -1.236328125, 0, 
231, 1652353451, 0.5978800654411316, -0.010798265226185322, -0.00016585414414294064, 0.8015128374099731, -0.18829843401908875, -0.14528119564056396, 9.867146492004395, 0.2763647735118866, 0.3372497856616974, -0.8311818838119507, 1.56689453125, -0.5712890625, -1.2353515625, 0, 
232, 1652361784, 0.5978729724884033, -0.010797117836773396, -0.00016205005522351712, 0.8015180826187134, -0.17819876968860626, -0.12759241461753845, 9.836332321166992, 0.34767481684684753, 0.3422958254814148, -0.7534427046775818, 1.56298828125, -0.57275390625, -1.23779296875, 0, 
233, 1652370117, 0.5978754758834839, -0.010790652595460415, -0.0001617518428247422, 0.8015162944793701, -0.17382124066352844, -0.11582598835229874, 9.836496353149414, 0.3570239841938019, 0.2591007351875305, -0.8012388348579407, 1.56640625, -0.572265625, -1.2353515625, 0, 
234, 1652378450, 0.5978697538375854, -0.010788538493216038, -0.00015513137623202056, 0.8015207052230835, -0.15701226890087128, -0.1309472918510437, 9.849493026733398, 0.38847827911376953, 0.35669103264808655, -0.774369478225708, 1.56201171875, -0.57373046875, -1.23876953125, 0, 
235, 1652386783, 0.597868025302887, -0.010783947072923183, -0.0001618007809156552, 0.8015220761299133, -0.16571016609668732, -0.1455104947090149, 9.843735694885254, 0.26399311423301697, 0.22172962129116058, -0.7283919453620911, 1.56494140625, -0.57275390625, -1.232421875, 0, 
236, 1652395116, 0.5978638529777527, -0.010799841023981571, -0.00016520763165317476, 0.8015248775482178, -0.18636731803417206, -0.14078940451145172, 9.839757919311523, 0.12962083518505096, 0.47075119614601135, -0.8074118494987488, 1.56591796875, -0.5771484375, -1.23828125, 0, 
237, 1652403449, 0.5978618264198303, -0.010796821676194668, -0.00016478192992508411, 0.8015264272689819, -0.1852586269378662, -0.14056052267551422, 9.8434419631958, 0.3290020525455475, 0.2990846335887909, -0.7242425084114075, 1.5673828125, -0.57568359375, -1.23583984375, 0, 
238, 1652411782, 0.5978535413742065, -0.010799476876854897, -0.00017293423297815025, 0.8015325665473938, -0.16665391623973846, -0.15370717644691467, 9.849164009094238, 0.18515248596668243, 0.28509920835494995, -0.735410213470459, 1.56689453125, -0.572265625, -1.23388671875, 0, 
239, 1652420115, 0.5978543162345886, -0.010796170681715012, -0.00017933979688677937, 0.801531970500946, -0.1776837706565857, -0.1302747279405594, 9.856474876403809, 0.25569412112236023, 0.23971082270145416, -0.7743183970451355, 1.56201171875, -0.572265625, -1.23779296875, 0, 
240, 1652428448, 0.5978464484214783, -0.010789760388433933, -0.00018339707457926124, 0.8015379905700684, -0.17192544043064117, -0.13498109579086304, 9.840065956115723, 0.3051808178424835, 0.21970610320568085, -0.7378948926925659, 1.5615234375, -0.5751953125, -1.23486328125, 0, 
241, 1652436781, 0.5978465676307678, -0.010796958580613136, -0.00018533904221840203, 0.801537811756134, -0.19155333936214447, -0.14288558065891266, 9.8195161819458, 0.2200646996498108, 0.3911421597003937, -0.7626382112503052, 1.56591796875, -0.5751953125, -1.23828125, 0, 
242, 1652445114, 0.597844123840332, -0.010797250084578991, -0.00018588098464533687, 0.8015396595001221, -0.18244756758213043, -0.1512182503938675, 9.821439743041992, 0.28988906741142273, 0.32290583848953247, -0.8311050534248352, 1.5673828125, -0.57373046875, -1.2353515625, 0, 
243, 1652453447, 0.5978477001190186, -0.01079637836664915, -0.0001855946029536426, 0.8015369772911072, -0.19564437866210938, -0.13910116255283356, 9.879914283752441, 0.30950960516929626, 0.3218044340610504, -0.8211154937744141, 1.56640625, -0.57421875, -1.2353515625, 0, 
244, 1652461780, 0.5978443026542664, -0.010755972005426884, -0.00021617165475618094, 0.8015400767326355, -0.18585216999053955, -0.12898743152618408, 9.891151428222656, 0.2936544418334961, -0.3724309802055359, -0.8154292106628418, 1.56298828125, -0.57666015625, -1.234375, 0, 
245, 1652470113, 0.5978419780731201, -0.010709818452596664, -0.00023673524265177548, 0.8015424609184265, -0.20598042011260986, -0.1281360238790512, 9.918282508850098, 0.4528212249279022, -0.35006973147392273, -0.71722412109375, 1.5634765625, -0.5732421875, -1.236328125, 0, 
246, 1652478446, 0.5977466106414795, -0.010695971548557281, -0.00025989458663389087, 0.8016138076782227, -1.3381035327911377, -0.6819233894348145, 9.621503829956055, 0.14332444965839386, -0.02958444505929947, 0.7588345408439636, 1.56494140625, -0.57470703125, -1.23583984375, 0, 
247, 1652486779, 0.5971083045005798, -0.010673376731574535, -0.0003207897243555635, 0.8020898103713989, -3.764118194580078, -2.236959218978882, 9.864481925964355, -0.27758151292800903, -0.493560791015625, 10.179034233093262, 1.5654296875, -0.57470703125, -1.23486328125, 0, 
248, 1652495112, 0.5958747267723083, -0.010613753460347652, -0.0004042611981276423, 0.803007185459137, -3.427213430404663, -3.3577537536621094, 9.80759048461914, -0.3099323809146881, -1.1600178480148315, 20.255680084228516, 1.56396484375, -0.57373046875, -1.23291015625, 0, 
249, 1652503445, 0.594453752040863, -0.010767839848995209, -0.0003523689229041338, 0.804057776927948, -2.3634426593780518, -2.9065864086151123, 9.613004684448242, -0.5913561582565308, 2.2933075428009033, 23.547317504882812, 1.56201171875, -0.5771484375, -1.2373046875, 0, 
250, 1652511778, 0.5929812788963318, -0.010620186105370522, -0.0005373721942305565, 0.8051460385322571, -1.5062185525894165, -1.9064894914627075, 9.79643440246582, -0.7497546672821045, -2.98518705368042, 24.28595733642578, 1.55859375, -0.57958984375, -1.24072265625, 0, 
251, 1652520111, 0.591604471206665, -0.010564848780632019, -0.0006078482256270945, 0.8061589598655701, -0.5431386232376099, -0.03085828758776188, 10.142141342163086, -0.2218962460756302, -1.0172187089920044, 22.733707427978516, 1.560546875, -0.58154296875, -1.23828125, 0, 
252, 1652528444, 0.5902243256568909, -0.010638714767992496, -0.000581094587687403, 0.8071691393852234, -0.6485456824302673, 1.2230792045593262, 10.204429626464844, -0.19292651116847992, 1.2009624242782593, 22.663755416870117, 1.56005859375, -0.58203125, -1.23681640625, 0, 
253, 1652536777, 0.5886214971542358, -0.010871847160160542, -0.0005241160979494452, 0.8083358407020569, -0.4230114221572876, 1.7819976806640625, 9.776510238647461, -1.1853506565093994, 3.194545269012451, 26.511194229125977, 1.5615234375, -0.5849609375, -1.23876953125, 0, 
254, 1652545110, 0.586947500705719, -0.010939527302980423, -0.0003958378219977021, 0.8095511198043823, 0.5156782865524292, 1.0668408870697021, 9.18725299835205, 0.9397229552268982, 1.9199546575546265, 27.621706008911133, 1.5576171875, -0.58056640625, -1.24072265625, 0, 
255, 1652553443, 0.5852625370025635, -0.01099491585046053, -0.000503070536069572, 0.8107693195343018, 1.0124050378799438, 1.4525803327560425, 10.096576690673828, -1.5884934663772583, -0.1135735735297203, 27.815322875976562, 1.5576171875, -0.58349609375, -1.2392578125, 0, 
256, 1652561776, 0.5838394165039062, -0.01108197495341301, -0.0005466496804729104, 0.8117932677268982, 1.981354832649231, 0.8660467267036438, 9.630334854125977, -1.0927038192749023, 0.7757402658462524, 23.284029006958008, 1.5556640625, -0.58984375, -1.24169921875, 0, 
257, 1652570109, 0.5828434228897095, -0.011062448844313622, -0.0005694906576536596, 0.8125089406967163, 2.749922752380371, 0.9191962480545044, 10.306102752685547, 0.0543149970471859, -0.190262570977211, 16.103044509887695, 1.55419921875, -0.587890625, -1.23974609375, 0, 
258, 1652578442, 0.5828019380569458, -0.011171997524797916, -0.0005037305527366698, 0.8125373125076294, 4.54295015335083, 0.7470056414604187, 10.00148868560791, 0.15113678574562073, 2.06784987449646, -0.11088401824235916, 1.55712890625, -0.5888671875, -1.240234375, 0, 
259, 1652586775, 0.5831685662269592, -0.011250266805291176, -0.0004659953119698912, 0.8122731447219849, 0.9480772614479065, 1.0849425792694092, 9.968925476074219, 0.14893396198749542, 1.546472191810608, -6.967532634735107, 1.5556640625, -0.587890625, -1.24267578125, 0, 
260, 1652595108, 0.5832571387290955, -0.011296589858829975, -0.00043167039984837174, 0.8122089505195618, 0.31143060326576233, 0.14240722358226776, 9.631464958190918, 0.3261844515800476, 1.13185453414917, -2.2963929176330566, 1.55712890625, -0.5888671875, -1.24267578125, 0, 
261, 1652603441, 0.5833756923675537, -0.011252899654209614, -0.00046611239667981863, 0.8121244311332703, 0.1488438993692398, 0.45254671573638916, 9.844977378845215, 0.28230729699134827, -0.4228653907775879, -2.768002510070801, 1.55908203125, -0.5869140625, -1.24169921875, 0, 
262, 1652611774, 0.5835750102996826, -0.011244542896747589, -0.000458972790511325, 0.8119813799858093, 0.22641412913799286, 0.7275063395500183, 9.930830955505371, 0.4735431969165802, 0.31076472997665405, -4.175222873687744, 1.55517578125, -0.5859375, -1.2421875, 0, 
263, 1652620107, 0.5839616656303406, -0.011203955858945847, -0.00046549219405278563, 0.8117039203643799, 0.6157491207122803, 0.738656759262085, 9.923578262329102, 0.6105024814605713, -0.13229751586914062, -7.303719520568848, 1.5576171875, -0.5888671875, -1.2431640625, 0, 
264, 1652628440, 0.5845696926116943, -0.01112731359899044, -0.0004859895561821759, 0.8112670183181763, 0.8539784550666809, 0.7342040538787842, 9.907787322998047, 0.7743567824363708, -0.6235273480415344, -11.101107597351074, 1.5556640625, -0.58740234375, -1.24267578125, 0, 
265, 1652636773, 0.5855134725570679, -0.010972520336508751, -0.0005269829416647553, 0.8105883598327637, 0.7821261286735535, 0.711035966873169, 9.975592613220215, 1.2269349098205566, -1.6191785335540771, -16.750328063964844, 1.55908203125, -0.5849609375, -1.2421875, 0, 
266, 1652645106, 0.586629331111908, -0.010872669517993927, -0.000561996886972338, 0.8097823262214661, 0.05309291556477547, 0.2641487419605255, 9.744462013244629, 0.8706153035163879, -0.9371995329856873, -19.747299194335938, 1.5556640625, -0.58544921875, -1.24169921875, 0, 
267, 1652653439, 0.5877505540847778, -0.010833569802343845, -0.0005357408081181347, 0.8089694976806641, -0.2424919307231903, -0.2903915047645569, 9.711383819580078, 1.0696123838424683, 0.2339220494031906, -19.799449920654297, 1.5595703125, -0.58447265625, -1.2451171875, 0, 
268, 1652661772, 0.5890577435493469, -0.010727697983384132, -0.0005619860021397471, 0.8080194592475891, 0.26054197549819946, -0.21670423448085785, 10.18266487121582, 1.0448946952819824, -0.9116366505622864, -23.048851013183594, 1.5595703125, -0.58251953125, -1.24169921875, 0, 
269, 1652670105, 0.5905423164367676, -0.010388442315161228, -0.0007138276705518365, 0.806939423084259, 0.058058589696884155, -0.2325766533613205, 9.728211402893066, 1.5709348917007446, -4.500424385070801, -26.029104232788086, 1.5625, -0.5810546875, -1.2412109375, 0, 
270, 1652678438, 0.5921164751052856, -0.010260208509862423, -0.0008623139001429081, 0.8057866096496582, 0.14457263052463531, -0.04937460646033287, 10.283913612365723, -0.09753907471895218, -2.120399236679077, -27.688955307006836, 1.5615234375, -0.5830078125, -1.24072265625, 0, 
271, 1652686771, 0.5936886072158813, -0.009770181961357594, -0.0010480352211743593, 0.8046349287033081, 0.5424325466156006, -0.11788970232009888, 9.694718360900879, 2.440154790878296, -6.433685779571533, -27.589778900146484, 1.564453125, -0.5810546875, -1.240234375, 0, 
272, 1652695104, 0.5955231785774231, -0.009444673545658588, -0.001191933755762875, 0.8032817244529724, 1.1108652353286743, 0.18471159040927887, 9.778396606445312, 1.588762640953064, -4.24049186706543, -32.22808837890625, 1.56689453125, -0.5771484375, -1.2392578125, 0, 
273, 1652703437, 0.5974072217941284, -0.009192883968353271, -0.0013394877314567566, 0.8018842339515686, 0.09017632156610489, -0.04511960595846176, 9.9436616897583, 0.9528631567955017, -3.4484732151031494, -33.03826904296875, 1.56640625, -0.578125, -1.2392578125, 0, 
274, 1652711770, 0.5991441607475281, -0.00904031191021204, -0.001339870155788958, 0.8005891442298889, 0.12709186971187592, -0.30287429690361023, 9.556139945983887, 1.7390927076339722, -1.160786747932434, -30.659725189208984, 1.5703125, -0.57958984375, -1.23681640625, 0, 
275, 1652720103, 0.6008090972900391, -0.009039238095283508, -0.001350152539089322, 0.7993404269218445, 0.13485729694366455, -0.18010342121124268, 9.716317176818848, 0.38035890460014343, 0.41734591126441956, -29.38027000427246, 1.56884765625, -0.57421875, -1.2392578125, 0, 
276, 1652728436, 0.6022142767906189, -0.009121033363044262, -0.0011982738506048918, 0.798281729221344, -0.5546950697898865, -0.020377758890390396, 9.79113483428955, 1.4404301643371582, 2.640636920928955, -24.93257713317871, 1.56982421875, -0.57421875, -1.240234375, 0, 
277, 1652736769, 0.6033704280853271, -0.009577399119734764, -0.0008509171311743557, 0.7974033951759338, -0.26316267251968384, -0.4890967905521393, 9.464929580688477, 0.46368181705474854, 8.3439302444458, -20.67300033569336, 1.57080078125, -0.57177734375, -1.23828125, 0, 
278, 1652745102, 0.6043422222137451, -0.00975576788187027, -0.000622939202003181, 0.7966648936271667, -0.23657211661338806, -0.11811046302318573, 10.19815731048584, 1.4317463636398315, 4.284660816192627, -17.511816024780273, 1.57470703125, -0.57568359375, -1.23828125, 0, 
279, 1652753435, 0.60504549741745, -0.009992866776883602, -0.000446619262220338, 0.7961281538009644, -0.7613851428031921, -0.4793318510055542, 9.991006851196289, 0.3508765995502472, 4.4688005447387695, -12.898125648498535, 1.5771484375, -0.576171875, -1.2392578125, 0, 
280, 1652761768, 0.6057509779930115, -0.010242756456136703, -0.0002723298966884613, 0.7955883145332336, -0.2769301235675812, -0.41157597303390503, 9.710391998291016, 0.21501873433589935, 4.593157768249512, -12.950482368469238, 1.576171875, -0.572265625, -1.234375, 0, 
281, 1652770101, 0.6064883470535278, -0.010388502851128578, -0.0001757600111886859, 0.7950245141983032, -0.6366789937019348, -0.26805171370506287, 9.980993270874023, 0.2446800321340561, 2.807436227798462, -13.50966739654541, 1.57763671875, -0.57275390625, -1.234375, 0, 
282, 1652778434, 0.6073133945465088, -0.010436855256557465, -0.00011384168465156108, 0.7943938970565796, -0.21482595801353455, -0.1860773265361786, 9.912375450134277, 0.6832982897758484, 1.4661974906921387, -15.028745651245117, 1.57763671875, -0.57080078125, -1.2333984375, 0, 
283, 1652786767, 0.6082042455673218, -0.0104253264144063, -0.00007472690049326047, 0.7937120795249939, -0.3326328694820404, -0.3330219089984894, 9.775633811950684, 0.95058274269104, 0.6273567080497742, -16.18084716796875, 1.5791015625, -0.5693359375, -1.23291015625, 0, 
284, 1652795100, 0.6091490387916565, -0.010469894856214523, -0.00004284530223230831, 0.7929866313934326, -0.1845628023147583, -0.37315279245376587, 9.888143539428711, 0.40487152338027954, 1.1847227811813354, -17.132648468017578, 1.5771484375, -0.56689453125, -1.2353515625, 0, 
285, 1652803433, 0.6101911067962646, -0.01034920196980238, -0.00006475832924479619, 0.7921867966651917, -0.20405954122543335, -0.47221365571022034, 9.993488311767578, 1.2213000059127808, -1.0549482107162476, -18.826112747192383, 1.578125, -0.5703125, -1.23193359375, 0, 
286, 1652811766, 0.6110392808914185, -0.010391557589173317, -0.000006945285804249579, 0.7915320992469788, -1.7499492168426514, -0.5302990078926086, 9.789583206176758, 0.6874477863311768, 1.3679924011230469, -15.4854736328125, 1.5791015625, -0.5654296875, -1.23046875, 0, 
287, 1652820099, 0.6117979884147644, -0.010368027724325657, 0.000005470352789416211, 0.7909461855888367, -0.1730969101190567, -1.219161868095398, 9.655098915100098, 0.7406742572784424, 0.25784575939178467, -13.93875789642334, 1.578125, -0.5673828125, -1.2333984375, 0, 
288, 1652828432, 0.6125327348709106, -0.010364756919443607, 0.000007314971753658028, 0.7903772592544556, -0.41074246168136597, -1.6772161722183228, 9.752586364746094, 0.45072099566459656, 0.3892211616039276, -13.657999038696289, 1.583984375, -0.5654296875, -1.23095703125, 0, 
289, 1652836765, 0.6131997108459473, -0.010371220298111439, 0.00004226769306114875, 0.7898597717285156, -0.7181400656700134, -0.7278673648834229, 9.828461647033691, 0.7194399237632751, 0.766160249710083, -12.363377571105957, 1.583984375, -0.56640625, -1.23193359375, 0, 
290, 1652845098, 0.6137898564338684, -0.010443471372127533, 0.00010050844139186665, 0.7894005179405212, -0.6203120946884155, -0.22642450034618378, 9.774256706237793, 0.4041542410850525, 1.666679859161377, -11.033869743347168, 1.57861328125, -0.5634765625, -1.23388671875, 0, 
291, 1652853431, 0.6142182350158691, -0.010469099506735802, 0.00011489374446682632, 0.7890669107437134, -0.7524597644805908, -0.025507481768727303, 9.913619041442871, 0.3026193678379059, 0.7759191393852234, -8.223321914672852, 1.5830078125, -0.56396484375, -1.232421875, 0, 
292, 1652861764, 0.6146475672721863, -0.010494766756892204, 0.00013122829841449857, 0.7887321710586548, 0.21834386885166168, -0.05195881426334381, 9.985790252685547, 0.3185514211654663, 0.7883421182632446, -8.241456985473633, 1.58349609375, -0.564453125, -1.232421875, 0, 
293, 1652870097, 0.615190327167511, -0.010490008629858494, 0.00014811994333285838, 0.7883089780807495, 0.25277775526046753, -0.04521394148468971, 9.940768241882324, 0.6028438806533813, 0.4790758192539215, -10.22107982635498, 1.583984375, -0.5654296875, -1.2333984375, 0, 
294, 1652878430, 0.615767240524292, -0.010450685396790504, 0.00015126481594052166, 0.7878588438034058, -0.22325366735458374, -0.10838885605335236, 9.855879783630371, 0.7485633492469788, -0.010911665856838226, -10.820249557495117, 1.5859375, -0.564453125, -1.23095703125, 0, 
295, 1652886763, 0.6163417100906372, -0.010393760167062283, 0.00013941257202532142, 0.787410318851471, -0.055090051144361496, -0.07599175721406937, 9.771475791931152, 0.7374723553657532, -0.32509589195251465, -10.783645629882812, 1.5859375, -0.56494140625, -1.23193359375, 0, 
296, 1652895096, 0.61695796251297, -0.010411357507109642, 0.0001655182131798938, 0.7869272828102112, -0.06027025356888771, -0.09975321590900421, 9.787742614746094, 0.5180351138114929, 0.8036594390869141, -11.523153305053711, 1.58837890625, -0.564453125, -1.232421875, 0, 
297, 1652903429, 0.617544949054718, -0.010379044339060783, 0.0001640191621845588, 0.7864671945571899, -0.38219356536865234, -0.12854118645191193, 9.89840316772461, 0.6435192227363586, 0.029955849051475525, -11.014787673950195, 1.587890625, -0.56298828125, -1.22998046875, 0, 
298, 1652911762, 0.6180174350738525, -0.010361898690462112, 0.0001845249644247815, 0.7860961556434631, -0.5840498208999634, -0.149482861161232, 9.877782821655273, 0.7321189641952515, 0.3665269613265991, -9.01695442199707, 1.58984375, -0.56396484375, -1.23388671875, 0, 
299, 1652920095, 0.6183772683143616, -0.010347888804972172, 0.00019093476294074208, 0.7858132719993591, -0.3354979157447815, -0.016963325440883636, 9.850397109985352, 0.5403962731361389, 0.2699868679046631, -7.0520853996276855, 1.58837890625, -0.5625, -1.232421875, 0, 
300, 1652928428, 0.6185277104377747, -0.010361730121076107, 0.00020523727289400995, 0.7856947779655457, -0.704931914806366, 0.1062295213341713, 9.779413223266602, 0.35505175590515137, 0.6126797795295715, -3.3898136615753174, 1.58984375, -0.56201171875, -1.22998046875, 0, 
301, 1652936761, 0.618390679359436, -0.010376418009400368, 0.00020028240396641195, 0.78580242395401, -0.6662061214447021, -0.019692344591021538, 9.819869995117188, 0.10267466306686401, 0.4285646080970764, 1.6357122659683228, 1.5888671875, -0.56298828125, -1.2333984375, 0, 
302, 1652945094, 0.6180692315101624, -0.010399525985121727, 0.00021381232363637537, 0.7860550284385681, -0.4423261880874634, -0.19225378334522247, 9.847423553466797, 0.19918909668922424, 0.6555323004722595, 4.863951683044434, 1.5859375, -0.5615234375, -1.232421875, 0, 
303, 1652953427, 0.6177464723587036, -0.010385830886662006, 0.00019433957641012967, 0.7863088250160217, -0.3248806297779083, -0.23150023818016052, 9.889917373657227, 0.15787333250045776, -0.02179771289229393, 4.88364839553833, 1.5859375, -0.56298828125, -1.23046875, 0, 
304, 1652961760, 0.6175218820571899, -0.010355601087212563, 0.00018312271276954561, 0.7864855527877808, -0.4374832212924957, -0.1884797215461731, 9.836551666259766, 0.3997741639614105, -0.1232813149690628, 3.1682121753692627, 1.5830078125, -0.56201171875, -1.2314453125, 0, 
305, 1652970093, 0.6173853874206543, -0.010341452434659004, 0.00016807502834126353, 0.7865929007530212, -0.49690067768096924, -0.05488373711705208, 9.82859992980957, 0.23753362894058228, 0.03238920122385025, 1.626516580581665, 1.583984375, -0.564453125, -1.22705078125, 0, 
306, 1652978426, 0.6173095703125, -0.01037357933819294, 0.00017955666407942772, 0.7866520285606384, -0.07853100448846817, -0.16101020574569702, 9.801849365234375, 0.13768930733203888, 0.7607299089431763, 0.5641663074493408, 1.5869140625, -0.56396484375, -1.22998046875, 0, 
307, 1652986759, 0.617276132106781, -0.010409639216959476, 0.00020322583441156894, 0.7866777777671814, 0.09452477842569351, -0.04140792042016983, 9.89748764038086, 0.24491049349308014, 0.9141592383384705, -0.1750732958316803, 1.58740234375, -0.5615234375, -1.2314453125, 0, 
308, 1652995092, 0.6172816157341003, -0.010385369881987572, 0.00019644036365207285, 0.7866738438606262, 0.20559363067150116, 0.3865753412246704, 9.927266120910645, 0.428974449634552, 0.004520912654697895, -0.8527235388755798, 1.5908203125, -0.5625, -1.23193359375, 0, 
309, 1653003425, 0.6173099875450134, -0.010328216478228569, 0.00016807751671876758, 0.7866523265838623, 0.08800164610147476, 0.3571197986602783, 9.8953857421875, 0.4834558367729187, -0.5287033915519714, -1.253637433052063, 1.58349609375, -0.56787109375, -1.22900390625, 0, 
310, 1653011758, 0.6173242330551147, -0.010222290642559528, 0.00011136921966681257, 0.7866426110267639, -0.05348851531744003, 0.17060798406600952, 9.878816604614258, 0.584401547908783, -1.3016129732131958, -1.0025155544281006, 1.58935546875, -0.5654296875, -1.2294921875, 0, 
311, 1653020091, 0.6172824501991272, -0.01018884964287281, 0.00009155747102340683, 0.7866758704185486, -0.466887503862381, 0.1156829297542572, 9.7676362991333, 0.36360687017440796, -0.2072959840297699, -0.027765827253460884, 1.58984375, -0.5634765625, -1.22998046875, 0, 
312, 1653028424, 0.6171398758888245, -0.01013721153140068, 0.000055248747230507433, 0.7867882251739502, -0.38099008798599243, -0.2755902409553528, 9.899706840515137, 0.31985774636268616, -0.5587745308876038, 1.731586217880249, 1.58349609375, -0.56201171875, -1.23193359375, 0, 
313, 1653036757, 0.6169795989990234, -0.01001932006329298, 0.000009243593012797646, 0.7869154810905457, -0.10347387939691544, -0.3596768081188202, 10.192541122436523, 0.7811444401741028, -1.355377197265625, 2.0472049713134766, 1.58740234375, -0.56396484375, -1.2294921875, 0, 
314, 1653045090, 0.6168128252029419, -0.009532329626381397, -0.00014778490003664047, 0.7870523929595947, -0.1531459093093872, -0.20767422020435333, 10.902759552001953, 2.705157995223999, -6.297951698303223, 2.1863417625427246, 1.58447265625, -0.5654296875, -1.22998046875, 0, 
315, 1653053423, 0.6165752410888672, -0.00818588212132454, -0.0007760014850646257, 0.7872532606124878, -0.4782237708568573, 0.11964645981788635, 11.363215446472168, 4.890361785888672, -19.59986686706543, 3.4307079315185547, 1.5859375, -0.56396484375, -1.22900390625, 0, 
316, 1653061756, 0.6161884665489197, -0.00588066503405571, -0.0019387527136132121, 0.7875745296478271, -0.49754446744918823, 0.2021351456642151, 11.021739959716797, 7.21647310256958, -34.52817916870117, 5.996210098266602, 1.580078125, -0.56396484375, -1.22802734375, 0, 
317, 1653070089, 0.6157751679420471, -0.0033970344811677933, -0.003210350638255477, 0.7879082560539246, -0.2515241503715515, 0.14545994997024536, 9.972548484802246, 7.549638748168945, -37.38407516479492, 6.376838207244873, 1.5771484375, -0.564453125, -1.23193359375, 0, 
318, 1653078422, 0.615398645401001, -0.0013458685716614127, -0.004097769968211651, 0.7882043719291687, -0.48974135518074036, 0.005071667488664389, 9.932158470153809, 8.047857284545898, -29.441919326782227, 5.576133728027344, 1.5703125, -0.5673828125, -1.23583984375, 0, 
319, 1653086755, 0.6151419281959534, -0.00006376770761562511, -0.003969189710915089, 0.7884065508842468, -0.18647220730781555, -0.3943409323692322, 9.344764709472656, 12.551453590393066, -12.499468803405762, 3.664386749267578, 1.5693359375, -0.572265625, -1.2333984375, 0, 
320, 1653095088, 0.6151524782180786, 0.00011989710037596524, -0.0027260445058345795, 0.7884035110473633, 0.25437119603157043, -0.4083637595176697, 9.153573989868164, 15.325550079345703, 8.850756645202637, -1.0297949314117432, 1.57080078125, -0.57275390625, -1.23193359375, 0, 
321, 1653103421, 0.6154300570487976, -0.0003749193565454334, -0.0007579115917906165, 0.7881910800933838, -0.15691661834716797, 0.19707922637462616, 9.855576515197754, 17.44413948059082, 22.34986114501953, -5.550609588623047, 1.572265625, -0.5712890625, -1.2265625, 0, 
322, 1653111754, 0.6158871054649353, -0.0014450893504545093, 0.0015240812208503485, 0.787831723690033, -0.008957497775554657, 0.33257508277893066, 9.499404907226562, 15.975553512573242, 31.246599197387695, -8.853391647338867, 1.57763671875, -0.5703125, -1.2236328125, 0, 
323, 1653120087, 0.6164482831954956, -0.0032799902837723494, 0.0037728825118392706, 0.7873796820640564, -0.4657478928565979, 0.035921428352594376, 9.954911231994629, 9.14284896850586, 39.249202728271484, -10.660225868225098, 1.580078125, -0.57080078125, -1.22412109375, 0, 
324, 1653128420, 0.6170597076416016, -0.0054227435030043125, 0.0055182920768857, 0.7868784070014954, -0.20159578323364258, -0.1763099581003189, 10.408754348754883, 1.086698293685913, 38.31117248535156, -11.784895896911621, 1.58251953125, -0.57421875, -1.22265625, 0, 
325, 1653136753, 0.6177809238433838, -0.007349844090640545, 0.006044949870556593, 0.7862927913665771, -0.27710381150245667, -0.2283094823360443, 10.916644096374512, -10.256690979003906, 25.637706756591797, -13.641358375549316, 1.59228515625, -0.5712890625, -1.2216796875, 0, 
326, 1653145086, 0.6184863448143005, -0.009086081758141518, 0.005540297832340002, 0.7857236862182617, 0.19671249389648438, -0.18648694455623627, 11.121478080749512, -19.78749656677246, 14.811864852905273, -13.532957077026367, 1.591796875, -0.56787109375, -1.21923828125, 0, 
327, 1653153419, 0.6190802454948425, -0.01084484625607729, 0.004257785156369209, 0.7852414846420288, -0.005099502392113209, -0.28309139609336853, 11.275816917419434, -28.405492782592773, 8.436759948730469, -11.571676254272461, 1.5966796875, -0.5654296875, -1.22412109375, 0, 
328, 1653161752, 0.6194875240325928, -0.012767762877047062, 0.002402019686996937, 0.7848991751670837, 0.22716960310935974, -0.2784903645515442, 11.238953590393066, -36.02861404418945, 5.3212480545043945, -8.459622383117676, 1.5966796875, -0.56201171875, -1.22607421875, 0, 
329, 1653170085, 0.6197366118431091, -0.014942869544029236, 0.000031335785024566576, 0.7846679091453552, 0.13768930733203888, -0.22562900185585022, 10.970074653625488, -43.766937255859375, 3.6406214237213135, -5.906396389007568, 1.599609375, -0.55517578125, -1.228515625, 0, 
330, 1653178418, 0.6199245452880859, -0.017169924452900887, -0.00291618425399065, 0.7844681739807129, 0.4778006672859192, -0.44594115018844604, 10.930364608764648, -50.44501876831055, -0.7199665307998657, -5.098806858062744, 1.599609375, -0.5498046875, -1.22998046875, 0, 
331, 1653186751, 0.6201043128967285, -0.01896655187010765, -0.006668540183454752, 0.7842618227005005, 0.5080263018608093, -0.7476007342338562, 11.178693771362305, -55.46086120605469, -12.223735809326172, -5.27152681350708, 1.599609375, -0.54345703125, -1.2333984375, 0, 
332, 1653195084, 0.6202756762504578, -0.02029556967318058, -0.011184323579072952, 0.7840415835380554, 0.5279789566993713, -0.8269937038421631, 10.875810623168945, -59.711753845214844, -23.774703979492188, -5.540737628936768, 1.60205078125, -0.537109375, -1.23876953125, 0, 
333, 1653203417, 0.6203592419624329, -0.02133200131356716, -0.016321217641234398, 0.7838578820228577, 0.4136638641357422, -0.5865203738212585, 10.666321754455566, -63.929805755615234, -32.251461029052734, -4.502208709716797, 1.59521484375, -0.52978515625, -1.24365234375, 0, 
334, 1653211750, 0.6203614473342896, -0.022288715466856956, -0.0217193141579628, 0.7836984992027283, 0.39545485377311707, -0.6489341259002686, 10.392979621887207, -66.08551025390625, -35.36282730102539, -3.5119080543518066, 1.595703125, -0.52490234375, -1.2490234375, 0, 
335, 1653220083, 0.6203272342681885, -0.023439468815922737, -0.02698112092912197, 0.7835285067558289, 0.34358394145965576, -0.6760874390602112, 10.172611236572266, -66.28440856933594, -32.11737823486328, -3.110273838043213, 1.59033203125, -0.51904296875, -1.2548828125, 0, 
336, 1653228416, 0.6203149557113647, -0.025019770488142967, -0.03172805532813072, 0.7833115458488464, 0.256270170211792, -0.7117583751678467, 9.974729537963867, -64.41424560546875, -23.073396682739258, -3.41902756690979, 1.58642578125, -0.51025390625, -1.259765625, 0, 
337, 1653236749, 0.6203156113624573, -0.027159852907061577, -0.03575671836733818, 0.7830661535263062, 0.17084096372127533, -0.8818116188049316, 9.868829727172852, -61.457366943359375, -10.900636672973633, -3.313981056213379, 1.58642578125, -0.50390625, -1.26708984375, 0, 
338, 1653245082, 0.6203270554542542, -0.02989264205098152, -0.03905198350548744, 0.7828001379966736, 0.15501949191093445, -0.9774588942527771, 9.609798431396484, -58.6250114440918, 1.7491117715835571, -3.03865122795105, 1.5830078125, -0.49755859375, -1.2724609375, 0, 
339, 1653253415, 0.6203372478485107, -0.03314785286784172, -0.04172125458717346, 0.7825232148170471, 0.19860470294952393, -1.0109210014343262, 9.591344833374023, -56.346275329589844, 12.717952728271484, -2.580308437347412, 1.5908203125, -0.48974609375, -1.275390625, 0, 
340, 1653261748, 0.6203017234802246, -0.03667454421520233, -0.04397033900022507, 0.782270610332489, 0.13159266114234924, -1.0630559921264648, 9.462238311767578, -54.152339935302734, 19.18556785583496, -1.5331189632415771, 1.59130859375, -0.48486328125, -1.27294921875, 0, 
341, 1653270081, 0.6201680302619934, -0.0402195081114769, -0.04601721465587616, 0.7820846438407898, 0.09104931354522705, -1.231348991394043, 9.270413398742676, -52.13719940185547, 21.015857696533203, 0.2043124884366989, 1.59423828125, -0.47900390625, -1.275390625, 0, 
342, 1653278414, 0.6199127435684204, -0.043710850179195404, -0.04782945662736893, 0.7819911241531372, 0.0207819901406765, -1.2321233749389648, 9.226255416870117, -49.16828155517578, 22.310476303100586, 2.3946423530578613, 1.59814453125, -0.47412109375, -1.27685546875, 0, 
343, 1653286747, 0.6195571422576904, -0.047177959233522415, -0.04932139813899994, 0.7819788455963135, -0.15119583904743195, -1.172819972038269, 9.005287170410156, -45.52249526977539, 24.667577743530273, 4.343095302581787, 1.59521484375, -0.466796875, -1.2802734375, 0, 
344, 1653295080, 0.619193971157074, -0.050720177590847015, -0.050434526056051254, 0.7819738388061523, -0.20376119017601013, -1.3283480405807495, 8.538741111755371, -42.08940124511719, 28.690807342529297, 4.784454822540283, 1.6015625, -0.4619140625, -1.2783203125, 0, 
345, 1653303413, 0.6188986897468567, -0.05436559394001961, -0.05116312578320503, 0.7819153070449829, -0.2392522394657135, -1.3970036506652832, 8.364659309387207, -38.82081604003906, 33.16081619262695, 3.9374163150787354, 1.60546875, -0.46044921875, -1.27880859375, 0, 
346, 1653311746, 0.6186593174934387, -0.05788746476173401, -0.051671724766492844, 0.7818182706832886, -0.3237084746360779, -1.3855750560760498, 8.29766845703125, -35.39039611816406, 33.771202087402344, 3.0878665447235107, 1.60546875, -0.455078125, -1.28173828125, 0, 
347, 1653320079, 0.6184486150741577, -0.061115194112062454, -0.05203353241086006, 0.7817152142524719, -0.43716347217559814, -1.382797360420227, 8.14291763305664, -31.29155921936035, 31.88448715209961, 2.6342363357543945, 1.61083984375, -0.45263671875, -1.279296875, 0, 
348, 1653328412, 0.6182417869567871, -0.063743457198143, -0.05247526988387108, 0.7816393971443176, -0.40664440393447876, -1.3863896131515503, 8.071850776672363, -27.02794075012207, 24.73888397216797, 2.327324867248535, 1.615234375, -0.44921875, -1.28466796875, 0, 
349, 1653336745, 0.6180295348167419, -0.06545525044202805, -0.053210336714982986, 0.7816160321235657, -0.49154242873191833, -1.5232914686203003, 7.796019077301025, -22.357500076293945, 12.345696449279785, 1.9153695106506348, 1.61865234375, -0.4462890625, -1.28369140625, 0, 
350, 1653345078, 0.6177778244018555, -0.06612804532051086, -0.054211318492889404, 0.7816898822784424, -0.5261471271514893, -1.5748589038848877, 7.642541885375977, -16.350263595581055, -1.1989772319793701, 2.163519859313965, 1.61474609375, -0.44482421875, -1.28271484375, 0, 
351, 1653353411, 0.6174883842468262, -0.06582996249198914, -0.05529526621103287, 0.7818678021430969, -0.5518084168434143, -1.5405765771865845, 7.384792804718018, -8.950102806091309, -12.462685585021973, 2.655825138092041, 1.6162109375, -0.44482421875, -1.28271484375, 0, 
352, 1653361744, 0.6171343326568604, -0.06476011872291565, -0.05620523542165756, 0.7821717858314514, -0.6580328345298767, -1.4723249673843384, 7.183959484100342, -0.4883868098258972, -19.44648551940918, 3.991173267364502, 1.61083984375, -0.44384765625, -1.28271484375, 0, 
353, 1653370077, 0.6167370080947876, -0.06331070512533188, -0.05649557709693909, 0.7825828194618225, -0.7234259247779846, -1.371748685836792, 7.06704568862915, 9.440937042236328, -18.400300979614258, 5.622749328613281, 1.609375, -0.44287109375, -1.28515625, 0, 
354, 1653378410, 0.6163474917411804, -0.0617554746568203, -0.05599193274974823, 0.7830498814582825, -0.7081455588340759, -1.3119933605194092, 6.963507175445557, 18.933809280395508, -12.847723007202148, 6.625650882720947, 1.6083984375, -0.44677734375, -1.2841796875, 0, 
355, 1653386743, 0.616024911403656, -0.06014633923768997, -0.054659876972436905, 0.7835229635238647, -0.6435363292694092, -1.2796225547790527, 7.114757537841797, 28.37276840209961, -6.360378265380859, 6.614970684051514, 1.6044921875, -0.44921875, -1.28369140625, 0, 
356, 1653395076, 0.6157605051994324, -0.05846023932099342, -0.052468519657850266, 0.7840081453323364, -0.6418956518173218, -1.20325767993927, 7.468096733093262, 38.33970642089844, 0.12380655854940414, 6.746222019195557, 1.60693359375, -0.45703125, -1.28125, 0, 
357, 1653403409, 0.6155266165733337, -0.05669495835900307, -0.0494065061211586, 0.7845202684402466, -0.5887399911880493, -1.2483783960342407, 7.674956321716309, 48.44257736206055, 6.643642902374268, 7.286561012268066, 1.599609375, -0.45947265625, -1.27783203125, 0, 
358, 1653411742, 0.6153395175933838, -0.054775308817625046, -0.045621659606695175, 0.785032331943512, -0.4488072693347931, -1.3421869277954102, 7.749667167663574, 57.58395767211914, 11.128023147583008, 7.238873481750488, 1.6044921875, -0.46435546875, -1.2724609375, 0, 
359, 1653420075, 0.615202009677887, -0.05249175429344177, -0.04150012135505676, 0.7855246067047119, -0.3202660083770752, -1.2918859720230103, 7.737569808959961, 64.32156372070312, 10.093955993652344, 6.562865734100342, 1.60205078125, -0.47216796875, -1.27197265625, 0, 
360, 1653428408, 0.6150931715965271, -0.04960377514362335, -0.03727363049983978, 0.7860094308853149, -0.3253568112850189, -1.1366872787475586, 7.812280654907227, 70.58551788330078, 4.474864959716797, 5.921051502227783, 1.6015625, -0.4833984375, -1.26708984375, 0, 
361, 1653436741, 0.6149077415466309, -0.046233274042606354, -0.03277462348341942, 0.7865602374076843, -0.37480300664901733, -1.0819737911224365, 7.212936878204346, 77.59471893310547, 1.480011224746704, 7.245523452758789, 1.6005859375, -0.4912109375, -1.26611328125, 0, 
362, 1653445074, 0.6146270036697388, -0.042514149099588394, -0.027870357036590576, 0.7871782779693604, -0.26557430624961853, -0.8311867117881775, 6.147907257080078, 84.89630889892578, 1.0503568649291992, 8.94522762298584, 1.59814453125, -0.49951171875, -1.2578125, 0, 
363, 1653453407, 0.6142697930335999, -0.03849412873387337, -0.022435924038290977, 0.7878373861312866, -0.42030954360961914, -0.15657177567481995, 5.8039655685424805, 93.14814758300781, 2.2207584381103516, 10.314764976501465, 1.59765625, -0.5068359375, -1.25244140625, 0, 
364, 1653461740, 0.6137599349021912, -0.03409355878829956, -0.015894727781414986, 0.7885962128639221, -0.5186529755592346, 0.34752047061920166, 5.235355377197266, 108.30530548095703, 7.3480448722839355, 13.279314994812012, 1.59423828125, -0.52001953125, -1.24609375, 0, 
365, 1653470073, 0.6130688190460205, -0.02929190918803215, -0.007650537882000208, 0.7894495129585266, -0.7099893689155579, 0.48919761180877686, 5.741549015045166, 130.09458923339844, 17.288244247436523, 16.753976821899414, 1.5947265625, -0.533203125, -1.236328125, 0, 
366, 1653478406, 0.6120839715003967, -0.014311211183667183, -0.0021478324197232723, 0.7906604409217834, -3.5519137382507324, 0.2242065966129303, 21.709354400634766, 186.07310485839844, -116.51085662841797, 20.781396865844727, 1.5947265625, -0.5498046875, -1.22412109375, 0, 
367, 1653486739, 0.6123046278953552, -0.009293370880186558, -0.0030614412389695644, 0.7905614972114563, 1.4782390594482422, 2.883786678314209, -66.46454620361328, 32.642860412597656, -61.89542770385742, -4.319270610809326, 1.56982421875, -0.5634765625, -1.216796875, 0, 
368, 1653495072, 0.6132444143295288, -0.012718369252979755, 0.00008964248991105705, 0.7897908687591553, -1.4472434520721436, 0.7913455367088318, -6.022428512573242, 5.805527210235596, 64.23379516601562, -16.91762924194336, 1.58447265625, -0.56201171875, -1.21923828125, 0, 
369, 1653503405, 0.613579273223877, -0.009765718132257462, -0.0019326178589835763, 0.7895703911781311, -1.4442812204360962, 0.40350109338760376, 20.371156692504883, 3.294471025466919, -48.75638198852539, -6.6069231033325195, 1.58837890625, -0.5634765625, -1.2158203125, 0, 
370, 1653511738, 0.6133250594139099, -0.007339951582252979, -0.003683107439428568, 0.7897880673408508, 0.754718542098999, -0.5422323942184448, 8.802716255187988, 1.7354565858840942, -40.813655853271484, 3.3188283443450928, 1.5859375, -0.564453125, -1.2177734375, 0, 
371, 1653520071, 0.6131943464279175, -0.005765669513493776, -0.005007820203900337, 0.7898954153060913, 0.6506345272064209, 0.36334484815597534, 9.286033630371094, -0.816300630569458, -27.96195411682129, 1.352752685546875, 1.58447265625, -0.56201171875, -1.21826171875, 0, 
372, 1653528404, 0.6131864190101624, -0.005148532800376415, -0.005329006351530552, 0.7899037599563599, 0.1776839792728424, -0.12913483381271362, 9.519684791564941, 2.0157511234283447, -9.082040786743164, -0.8831020593643188, 1.58642578125, -0.56201171875, -1.21875, 0, 
373, 1653536737, 0.6131803393363953, -0.005177583545446396, -0.005448146257549524, 0.7899074554443359, -0.05053513124585152, 0.2039489448070526, 9.993202209472656, -1.239626407623291, -0.3621852695941925, -0.6690694093704224, 1.583984375, -0.56298828125, -1.21875, 0, 
374, 1653545070, 0.6131813526153564, -0.0053114681504666805, -0.00523429736495018, 0.7899071574211121, -0.22657567262649536, -0.03288424387574196, 10.355284690856934, 1.4926310777664185, 3.585723876953125, -0.9614045023918152, 1.58203125, -0.55908203125, -1.2197265625, 0, 
375, 1653553403, 0.6131662726402283, -0.00531794223934412, -0.005307232029736042, 0.7899184226989746, -0.26734504103660583, -0.16960836946964264, 9.973502159118652, -0.5470688343048096, -0.21869432926177979, -0.5051895976066589, 1.583984375, -0.560546875, -1.2158203125, 0, 
376, 1653561736, 0.6131542921066284, -0.005270364228636026, -0.0052561890333890915, 0.7899281978607178, -0.16187630593776703, -0.09056219458580017, 9.368563652038574, 1.2541369199752808, 0.23907044529914856, -0.7560297250747681, 1.58251953125, -0.5625, -1.21533203125, 0, 
377, 1653570069, 0.6131444573402405, -0.005264281295239925, -0.005306631326675415, 0.7899355292320251, -0.16906459629535675, -0.06451864540576935, 9.623141288757324, -0.19835662841796875, -0.1645970493555069, -0.5938916206359863, 1.58251953125, -0.56396484375, -1.2197265625, 0, 
378, 1653578402, 0.6131258010864258, -0.005257328040897846, -0.005295102950185537, 0.7899501323699951, -0.27993324398994446, -0.1574409157037735, 10.64916706085205, 0.48097124695777893, 0.3432435393333435, -0.6426867842674255, 1.58154296875, -0.5634765625, -1.21826171875, 0, 
379, 1653586735, 0.6131054759025574, -0.005241628270596266, -0.005296814255416393, 0.7899660468101501, -0.16540949046611786, -0.22005006670951843, 9.509082794189453, 0.4126325249671936, 0.13873949646949768, -0.4052172005176544, 1.5830078125, -0.564453125, -1.2177734375, 0, 
380, 1653595068, 0.6130842566490173, -0.005241963546723127, -0.005304083693772554, 0.7899823784828186, -0.20314788818359375, -0.02684461884200573, 9.626639366149902, 0.21571028232574463, 0.2675022780895233, -0.5897678136825562, 1.5849609375, -0.56396484375, -1.21875, 0, 
381, 1653603401, 0.6130794286727905, -0.0052602519281208515, -0.005280736833810806, 0.7899861931800842, -0.15997333824634552, -0.1302318125963211, 9.571712493896484, 0.39905694127082825, 0.7212584614753723, -0.6720150709152222, 1.58154296875, -0.564453125, -1.2158203125, 0, 
382, 1653611734, 0.6130616664886475, -0.005267550703138113, -0.005298582371324301, 0.7899998426437378, -0.2509574890136719, -0.031136324629187584, 10.336694717407227, 0.04120049625635147, 0.2527996897697449, -0.6546229720115662, 1.5849609375, -0.56396484375, -1.21728515625, 0, 
383, 1653620067, 0.6130602359771729, -0.005240538157522678, -0.005281573161482811, 0.7900012731552124, -0.18648141622543335, -0.2144850790500641, 9.948410034179688, 0.7123959064483643, 0.1774682253599167, -0.7321829199790955, 1.5830078125, -0.5654296875, -1.216796875, 0, 
384, 1653628400, 0.6130428314208984, -0.005222363863140345, -0.0053015220910310745, 0.7900147438049316, -0.23864029347896576, -0.1067633330821991, 9.86957836151123, 0.23205216228961945, -0.0451066680252552, -0.6591055393218994, 1.583984375, -0.560546875, -1.21875, 0, 
385, 1653636733, 0.6130384802818298, -0.005212834104895592, -0.00529056740924716, 0.7900182008743286, -0.16371427476406097, -0.1856377273797989, 9.52022647857666, 0.4990805387496948, 0.3164766728878021, -0.6820557713508606, 1.58251953125, -0.5634765625, -1.21826171875, 0, 
386, 1653645066, 0.613021731376648, -0.005219407845288515, -0.005309400614351034, 0.7900311350822449, -0.19060896337032318, -0.08340214937925339, 9.741900444030762, 0.03577028214931488, 0.2327437698841095, -0.6727578639984131, 1.58154296875, -0.56689453125, -1.21630859375, 0, 
387, 1653653399, 0.6130239963531494, -0.005231952294707298, -0.005299908109009266, 0.7900293469429016, -0.19799084961414337, -0.17322786152362823, 10.016233444213867, 0.29790636897087097, 0.5433163046836853, -0.7976016998291016, 1.58642578125, -0.56103515625, -1.21923828125, 0, 
388, 1653661732, 0.6130118370056152, -0.0052229659631848335, -0.005318379029631615, 0.7900385856628418, -0.23499950766563416, -0.15506647527217865, 10.129491806030273, 0.17016814649105072, 0.06970912963151932, -0.7462450265884399, 1.583984375, -0.5625, -1.21728515625, 0, 
389, 1653670065, 0.6130067706108093, -0.00520740170031786, -0.0053144535049796104, 0.7900426387786865, -0.19834792613983154, -0.170101597905159, 9.73423957824707, 0.4733383059501648, 0.1902497261762619, -0.6708368062973022, 1.583984375, -0.56103515625, -1.2177734375, 0, 
390, 1653678398, 0.6129971742630005, -0.005196504760533571, -0.00532535370439291, 0.7900501489639282, -0.1951078325510025, -0.11174160987138748, 9.64288330078125, 0.2713700234889984, 0.11325333267450333, -0.7917103171348572, 1.58349609375, -0.5595703125, -1.21630859375, 0, 
391, 1653686731, 0.6130041480064392, -0.005210127215832472, -0.00532390084117651, 0.7900446057319641, -0.2423812299966812, -0.11522514373064041, 9.801762580871582, 0.20116139948368073, 0.48868119716644287, -0.8802332878112793, 1.583984375, -0.56396484375, -1.21337890625, 0, 
392, 1653695064, 0.6129963994026184, -0.005218386650085449, -0.0053282068111002445, 0.7900506854057312, -0.21278992295265198, -0.15995188057422638, 10.069250106811523, 0.1778012216091156, 0.3756199777126312, -0.8246503472328186, 1.583984375, -0.56396484375, -1.2177734375, 0, 
393, 1653703397, 0.6130024194717407, -0.005218643229454756, -0.005336067173629999, 0.7900459170341492, -0.2108372002840042, -0.15890756249427795, 9.796419143676758, 0.21384045481681824, 0.2644285559654236, -0.8657100200653076, 1.58203125, -0.560546875, -1.2177734375, 0, 
394, 1653711730, 0.6129927635192871, -0.00521051837131381, -0.0053446595557034016, 0.7900532484054565, -0.23477749526500702, -0.11717056483030319, 9.838435173034668, 0.2704222798347473, 0.15920527279376984, -0.78838050365448, 1.587890625, -0.564453125, -1.2177734375, 0, 
395, 1653720063, 0.6129948496818542, -0.005203928332775831, -0.00535975769162178, 0.7900515198707581, -0.22076515853405, -0.10770738124847412, 9.783658981323242, 0.19165851175785065, 0.13005629181861877, -0.7986518144607544, 1.58349609375, -0.55908203125, -1.21630859375, 0, 
396, 1653728396, 0.612967312335968, -0.005193167366087437, -0.005363441538065672, 0.7900729775428772, -0.20527228713035583, -0.09485384821891785, 9.923003196716309, 0.3439863920211792, 0.1679653525352478, -0.4776798486709595, 1.5859375, -0.56103515625, -1.216796875, 0, 
397, 1653736729, 0.6129112839698792, -0.005189754534512758, -0.0053593735210597515, 0.7901164293289185, -0.1521838903427124, 0.08691419661045074, 9.881881713867188, 0.3732890784740448, 0.31663039326667786, 0.21553099155426025, 1.5869140625, -0.56494140625, -1.2158203125, 0, 
398, 1653745062, 0.6127671599388123, -0.005195549223572016, -0.005369609221816063, 0.7902282476425171, -0.2573235332965851, 0.08654940128326416, 9.853434562683105, 0.1326945424079895, 0.27841392159461975, 1.5542333126068115, 1.58251953125, -0.56396484375, -1.2177734375, 0, 
399, 1653753395, 0.6125761270523071, -0.005204854998737574, -0.005381618160754442, 0.7903763055801392, -0.29597145318984985, 0.008975502103567123, 9.757623672485352, 0.08712681382894516, 0.30259376764297485, 2.5638697147369385, 1.58349609375, -0.56396484375, -1.2158203125, 0, 
400, 1653761728, 0.6123558878898621, -0.005218722391873598, -0.005391468293964863, 0.7905466556549072, -0.2581634223461151, 0.13690251111984253, 9.827908515930176, 0.06763438135385513, 0.3602770268917084, 2.877413511276245, 1.58203125, -0.5625, -1.21875, 0, 
401, 1653770061, 0.6121271252632141, -0.005244790576398373, -0.005385987926274538, 0.7907236814498901, -0.2632730007171631, 0.21578969061374664, 9.92876148223877, 0.13628053665161133, 0.6265113949775696, 3.2195427417755127, 1.5810546875, -0.5634765625, -1.2177734375, 0, 
402, 1653778394, 0.611858606338501, -0.005256944801658392, -0.00539363780990243, 0.7909314036369324, -0.4571968913078308, 0.27895763516426086, 9.943549156188965, 0.10505678504705429, 0.35167062282562256, 3.716510057449341, 1.58203125, -0.5634765625, -1.21875, 0, 
403, 1653786727, 0.6115139126777649, -0.005084225907921791, -0.005474775098264217, 0.7911986112594604, -0.7124706506729126, 0.2564670741558075, 10.100446701049805, 0.8660812973976135, -2.2785911560058594, 5.218042373657227, 1.578125, -0.5615234375, -1.216796875, 0, 
404, 1653795060, 0.6112170219421387, -0.004574338905513287, -0.005570793058723211, 0.7914304733276367, -0.32852691411972046, -0.43737122416496277, 10.772744178771973, 3.533803701400757, -6.072546005249023, 4.187222957611084, 1.5830078125, -0.5634765625, -1.22021484375, 0, 
405, 1653803393, 0.611167848110199, -0.0036646185908466578, -0.005561261437833309, 0.7914732098579407, -0.21216729283332825, -0.34299224615097046, 11.082040786743164, 8.049517631530762, -9.499911308288574, 0.06737825274467468, 1.58154296875, -0.564453125, -1.22021484375, 0, 
406, 1653811726, 0.6112782955169678, -0.003064162563532591, -0.0050636050291359425, 0.7913938164710999, -0.45041459798812866, -0.1217026561498642, 10.767865180969238, 10.762295722961426, -2.0129971504211426, -2.839542865753174, 1.580078125, -0.56591796875, -1.2158203125, 0, 
407, 1653820059, 0.6116083860397339, -0.002708743093535304, -0.004160759039223194, 0.7911453247070312, -0.3807993233203888, -0.29681217670440674, 10.532588958740234, 13.109457015991211, 4.082256317138672, -6.428277492523193, 1.5791015625, -0.56591796875, -1.21630859375, 0, 
408, 1653828392, 0.6121397614479065, -0.0029233002569526434, -0.0033258034382015467, 0.7907373309135437, -0.16310082376003265, -0.29852014780044556, 10.869624137878418, 7.5743231773376465, 9.73099136352539, -10.112399101257324, 1.58203125, -0.5673828125, -1.21484375, 0, 
409, 1653836725, 0.612762987613678, -0.0037175060715526342, -0.002998562529683113, 0.7902523875236511, -0.04445594176650047, -0.24054484069347382, 11.31920051574707, -2.8238162994384766, 11.765324592590332, -11.568979263305664, 1.583984375, -0.56640625, -1.2119140625, 0, 
410, 1653845058, 0.6132831573486328, -0.005125429946929216, -0.003581324126571417, 0.7898386120796204, -0.03201983496546745, -0.2202836126089096, 11.500300407409668, -17.887094497680664, 10.760993003845215, -10.051183700561523, 1.58447265625, -0.5634765625, -1.21484375, 0, 
411, 1653853391, 0.6137166023254395, -0.0072962031699717045, -0.005118020810186863, 0.7894762754440308, 0.19857214391231537, -0.19824351370334625, 11.643623352050781, -34.68580627441406, 10.992501258850098, -8.52493953704834, 1.5888671875, -0.5595703125, -1.2138671875, 0, 
412, 1653861724, 0.6140865683555603, -0.009959726594388485, -0.007687317673116922, 0.7891384959220886, 0.21740904450416565, -0.3398473560810089, 11.999494552612305, -50.0581169128418, 7.622878074645996, -7.87239933013916, 1.59130859375, -0.55322265625, -1.22119140625, 0, 
413, 1653870057, 0.6143407821655273, -0.01277095451951027, -0.011246529407799244, 0.7888574600219727, 0.10361076146364212, -0.3037845194339752, 11.687520027160645, -62.05868911743164, 0.8445681929588318, -6.080661296844482, 1.59228515625, -0.55224609375, -1.22412109375, 0, 
414, 1653878390, 0.614466667175293, -0.01573524810373783, -0.015473728068172932, 0.7886342406272888, 0.1515299677848816, -0.24175569415092468, 11.247732162475586, -70.6122817993164, -3.1707489490509033, -4.29498815536499, 1.59521484375, -0.541015625, -1.2265625, 0, 
415, 1653886723, 0.6144435405731201, -0.018542377278208733, -0.020164893940091133, 0.7884852290153503, 0.05880989879369736, -0.5409890413284302, 10.98905086517334, -74.33231353759766, -8.840771675109863, -2.18513560295105, 1.59619140625, -0.53271484375, -1.234375, 0, 
416, 1653895056, 0.6142626404762268, -0.02108125016093254, -0.025014882907271385, 0.7884233593940735, -0.049649275839328766, -0.6603156328201294, 10.507914543151855, -73.80391693115234, -13.159046173095703, 0.14675748348236084, 1.5947265625, -0.52880859375, -1.240234375, 0, 
417, 1653903389, 0.6139796376228333, -0.02321760356426239, -0.02998189628124237, 0.7884106040000916, -0.13631278276443481, -0.7320047616958618, 9.892641067504883, -71.68598175048828, -18.560523986816406, 1.4973257780075073, 1.5908203125, -0.52001953125, -1.24658203125, 0, 
418, 1653911722, 0.613669216632843, -0.024908224120736122, -0.035013508051633835, 0.7883933186531067, -0.18230833113193512, -1.0199207067489624, 9.587296485900879, -68.63362884521484, -23.949548721313477, 1.5491176843643188, 1.58984375, -0.51123046875, -1.24951171875, 0, 
419, 1653920055, 0.6134294271469116, -0.026214536279439926, -0.03994741290807724, 0.7883031368255615, -0.10868443548679352, -1.3102864027023315, 9.1564359664917, -64.34123992919922, -27.232118606567383, 0.019326021894812584, 1.58544921875, -0.5029296875, -1.2529296875, 0, 
420, 1653928388, 0.6132620573043823, -0.02724813111126423, -0.04480278864502907, 0.7881370782852173, -0.27247512340545654, -1.2687797546386719, 8.789795875549316, -61.21055603027344, -29.47003746032715, -1.5288941860198975, 1.58251953125, -0.49755859375, -1.2587890625, 0, 
421, 1653936721, 0.6131371855735779, -0.028197623789310455, -0.0494241863489151, 0.7879245281219482, -0.36859580874443054, -1.1764785051345825, 8.594022750854492, -57.9736213684082, -28.35398292541504, -2.3450686931610107, 1.583984375, -0.4912109375, -1.265625, 0, 
422, 1653945054, 0.6131477355957031, -0.029466943815350533, -0.05340183898806572, 0.7876102924346924, -0.3260987401008606, -1.2616454362869263, 8.285459518432617, -53.710365295410156, -19.329940795898438, -4.203077793121338, 1.58154296875, -0.486328125, -1.271484375, 0, 
423, 1653953387, 0.6133542060852051, -0.031206678599119186, -0.056594595313072205, 0.7871594429016113, -0.3411499261856079, -1.1938707828521729, 8.208333015441895, -49.19629669189453, -7.416055679321289, -6.811864852905273, 1.58447265625, -0.48046875, -1.2744140625, 0, 
424, 1653961720, 0.6137116551399231, -0.03320280462503433, -0.05912166088819504, 0.7866132855415344, -0.32178279757499695, -1.1862080097198486, 8.240753173828125, -44.16412353515625, 1.1320360898971558, -8.769818305969238, 1.58154296875, -0.4736328125, -1.27880859375, 0, 
425, 1653970053, 0.6141340732574463, -0.035190097987651825, -0.0610591322183609, 0.7860490083694458, -0.21445199847221375, -1.1764425039291382, 8.403740882873535, -37.69582748413086, 6.0748724937438965, -9.358582496643066, 1.5849609375, -0.46826171875, -1.27880859375, 0, 
426, 1653978386, 0.6145383715629578, -0.036950428038835526, -0.06252086162567139, 0.7855371832847595, -0.10656524449586868, -1.1805459260940552, 8.488080978393555, -30.600078582763672, 7.596561908721924, -8.682286262512207, 1.5830078125, -0.4609375, -1.28076171875, 0, 
427, 1653986719, 0.6148785352706909, -0.038345612585544586, -0.0636485144495964, 0.7851134538650513, -0.06401676684617996, -1.3333772420883179, 8.529670715332031, -23.864822387695312, 6.377141952514648, -7.389276027679443, 1.58642578125, -0.458984375, -1.28271484375, 0, 
428, 1653995052, 0.6151409149169922, -0.039323244243860245, -0.06459186226129532, 0.784782350063324, -0.025698751211166382, -1.3753327131271362, 8.47675609588623, -18.302248001098633, 3.309142827987671, -6.033230304718018, 1.59033203125, -0.46337890625, -1.28515625, 0, 
429, 1654003385, 0.6153321862220764, -0.03993115574121475, -0.06541100889444351, 0.7845338582992554, -0.11016786843538284, -1.2597650289535522, 8.428342819213867, -13.800361633300781, 0.2633015513420105, -4.828360080718994, 1.587890625, -0.4580078125, -1.2822265625, 0, 
430, 1654011718, 0.6154200434684753, -0.04038152098655701, -0.06592769920825958, 0.7843985557556152, -0.05574183538556099, -1.3493618965148926, 8.37814712524414, -9.158345222473145, 0.9663612246513367, -2.731066942214966, 1.59130859375, -0.4560546875, -1.28369140625, 0, 
431, 1654020051, 0.6154103875160217, -0.040335241705179214, -0.0666121393442154, 0.7843506932258606, -0.11755276471376419, -1.3697041273117065, 8.194433212280273, -6.740898609161377, -5.946806907653809, -1.4815531969070435, 1.58837890625, -0.45361328125, -1.28271484375, 0, 
432, 1654028384, 0.615299642086029, -0.039651673287153244, -0.06754282116889954, 0.7843929529190063, 0.08548106253147125, -0.8924600481987, 8.219752311706543, -3.975919008255005, -15.046443939208984, -0.3512480556964874, 1.5888671875, -0.4521484375, -1.28271484375, 0, 
433, 1654036717, 0.6152164340019226, -0.03853866830468178, -0.06838040053844452, 0.7844411134719849, 0.03044777549803257, -1.3059040307998657, 8.056086540222168, 0.681684672832489, -18.86896324157715, -0.9447813630104065, 1.58544921875, -0.45458984375, -1.28662109375, 0, 
434, 1654045050, 0.6151832938194275, -0.037016212940216064, -0.06896518915891647, 0.7844892740249634, -0.012586558237671852, -1.468545913696289, 7.939661502838135, 6.899772644042969, -21.101219177246094, -1.7373884916305542, 1.58544921875, -0.455078125, -1.28759765625, 0, 
435, 1654053383, 0.6151880621910095, -0.03521674498915672, -0.06915631145238876, 0.7845516204833984, -0.022683311253786087, -1.292069435119629, 7.593923091888428, 13.523054122924805, -20.728919982910156, -2.0876123905181885, 1.58251953125, -0.455078125, -1.287109375, 0, 
436, 1654061716, 0.6152504086494446, -0.033190201967954636, -0.06886770576238632, 0.7846162915229797, 0.014274374581873417, -1.3650470972061157, 7.336362838745117, 20.649812698364258, -19.06786346435547, -2.671438455581665, 1.57958984375, -0.4541015625, -1.28662109375, 0, 
